"sep=	"
Shimmer_001_TimestampSync_Unix_CAL	Shimmer_001_Accel_LN_X_CAL	Shimmer_001_Accel_LN_Y_CAL	Shimmer_001_Accel_LN_Z_CAL	Shimmer_001_Accel_WR_X_CAL	Shimmer_001_Accel_WR_Y_CAL	Shimmer_001_Accel_WR_Z_CAL	Shimmer_001_Battery_CAL	Shimmer_001_ECG_EMG_Status1_CAL	Shimmer_001_EMG_CH1_24BIT_CAL	Shimmer_001_EMG_CH2_24BIT_CAL	Shimmer_001_Gyro_X_CAL	Shimmer_001_Gyro_Y_CAL	Shimmer_001_Gyro_Z_CAL	Shimmer_001_Mag_X_CAL	Shimmer_001_Mag_Y_CAL	Shimmer_001_Mag_Z_CAL	Shimmer_001_Pressure_BMP180_CAL	Shimmer_001_Temperature_BMP180_CAL	
ms	m/(s^2)	m/(s^2)	m/(s^2)	m/(s^2)	m/(s^2)	m/(s^2)	mV	no_units	mV	mV	deg/s	deg/s	deg/s	local_flux	local_flux	local_flux	kPa	Degrees Celsius	
1501507219754.96	0.349397590361446	-0.578313253012048	10.0602409638554	0.166768853464132	0.029429797670141	9.88841201716738	3966.30036630037	128.0	14.8912411798526	15.7300638036009	0.702290076335878	0.702290076335878	-0.0458015267175573	-0.170909090909091	0.236363636363636	0.168367346938776	101.327335108805	31.3784825437515	
1501507219774.49	0.36144578313253	-0.590361445783133	10.0602409638554	0.176578786020846	0.0490496627835684	9.84917228694053	3982.41758241758	128.0	14.7273087176453	15.7118410720636	0.778625954198473	0.82442748091603	0.106870229007634	-0.177272727272727	0.257272727272727	0.180612244897959	101.321409259213	31.3784825437515	
1501507219794.02	0.337349397590361	-0.590361445783133	10.0481927710843	0.206008583690987	0.029429797670141	9.81974248927039	3964.83516483516	128.0	14.8892938958757	15.7187407078831	0.564885496183206	0.549618320610687	-0.0305343511450382	-0.178181818181818	0.235454545454545	0.169387755102041	101.321409259213	31.3784825437515	
1501507219813.55	0.349397590361446	-0.590361445783133	10.0602409638554	0.18638871857756	0.0196198651134273	9.84917228694053	3988.27838827839	128.0	14.7242074876079	15.7056626525318	0.687022900763359	0.732824427480916	-0.0458015267175573	-0.18	0.232727272727273	0.174489795918367	101.330298034761	31.3784825437515	
1501507219833.08	0.349397590361446	-0.590361445783133	10.0602409638554	0.215818516247701	0.0392397302268547	9.85898221949724	3980.95238095238	128.0	14.8881639903582	15.7250633706725	0.67175572519084	0.809160305343512	0.152671755725191	-0.176363636363636	0.253636363636364	0.173469387755102	101.321409259213	31.3784825437515	
1501507219852.61	0.349397590361446	-0.602409638554217	10.0602409638554	0.176578786020846	0.029429797670141	9.85898221949724	3957.50915750916	128.0	14.7218274738583	15.7073454905366	0.778625954198473	0.67175572519084	0.106870229007634	-0.173636363636364	0.235454545454545	0.170408163265306	101.327335108805	31.3784825437515	
1501507219872.14	0.349397590361446	-0.602409638554217	10.0602409638554	0.196198651134273	0.0	9.87860208461067	3976.55677655678	128.0	14.8852791252072	15.7249431679578	0.595419847328244	0.82442748091603	0.122137404580153	-0.18	0.251818181818182	0.178571428571429	101.327335108805	31.3784825437515	
1501507219891.67	0.349397590361446	-0.590361445783133	10.0602409638554	0.18638871857756	0.0196198651134273	9.84917228694053	3967.76556776557	128.0	14.9567756998669	15.7262894383617	0.610687022900763	0.732824427480916	0.259541984732824	-0.178181818181818	0.255454545454545	0.181632653061225	101.321409259213	31.3784825437515	
1501507219911.2	0.349397590361446	-0.578313253012048	10.0602409638554	0.176578786020846	0.0392397302268547	9.80993255671367	3969.23076923077	128.0	14.884029016975	15.7096053015715	0.854961832061069	0.778625954198473	0.0916030534351145	-0.178181818181818	0.25	0.176530612244898	101.327335108805	31.3784825437515	
1501507219930.73	0.349397590361446	-0.578313253012048	10.0602409638554	0.156958920907419	0.0	9.84917228694053	3978.02197802198	128.0	14.9579056053844	15.7304484522877	0.809160305343512	0.717557251908397	0.16793893129771	-0.168181818181818	0.241818181818182	0.175510204081633	101.327335108805	31.3784825437515	
1501507219950.26	0.349397590361446	-0.590361445783133	10.0843373493976	0.166768853464132	-0.00980993255671367	9.85898221949724	3966.30036630037	128.0	14.8813124356245	15.7090764096272	0.717557251908397	0.763358778625954	-0.0458015267175573	-0.172727272727273	0.242727272727273	0.179591836734694	101.321409259213	31.3784825437515	
1501507219969.79	0.349397590361446	-0.602409638554217	10.0602409638554	0.156958920907419	0.0392397302268547	9.84917228694053	3982.41758241758	128.0	14.955453470006	15.7130671397528	0.870229007633588	0.656488549618321	0.0458015267175573	-0.169090909090909	0.253636363636364	0.185714285714286	101.327335108805	31.3784825437515	
1501507219989.32	0.349397590361446	-0.614457831325301	10.0361445783133	0.147148988350705	0.029429797670141	9.86879215205395	3979.48717948718	128.0	14.8787881786173	15.7164808968482	0.916030534351145	0.687022900763359	0.0916030534351145	-0.179090909090909	0.250909090909091	0.176530612244898	101.327335108805	31.3784825437515	
1501507220008.85	0.337349397590361	-0.590361445783133	10.0602409638554	0.156958920907419	0.0392397302268547	9.86879215205395	3953.11355311355	128.0	14.9563189295513	15.7305446144594	0.625954198473282	0.717557251908397	-0.0610687022900763	-0.175454545454545	0.253636363636364	0.178571428571429	101.327335108805	31.3784825437515	
1501507220028.38	0.349397590361446	-0.590361445783133	10.0602409638554	0.176578786020846	0.0196198651134273	9.87860208461067	3947.25274725275	128.0	14.841573418169	15.7227314380087	0.717557251908397	0.717557251908397	0.0610687022900763	-0.179090909090909	0.235454545454545	0.169387755102041	101.321409259213	31.3784825437515	
1501507220047.91	0.36144578313253	-0.590361445783133	10.0722891566265	0.147148988350705	0.0196198651134273	9.88841201716738	3961.90476190476	128.0	14.9550207402334	15.7188609105978	0.702290076335878	0.564885496183206	0.137404580152672	-0.179090909090909	0.232727272727273	0.173469387755102	101.321409259213	31.3784825437515	
1501507220067.44	0.349397590361446	-0.566265060240964	10.0481927710843	0.156958920907419	0.00980993255671367	9.83936235438381	3969.23076923077	128.0	14.8447708103781	15.7273472222504	0.793893129770992	0.67175572519084	-0.0152671755725191	-0.178181818181818	0.251818181818182	0.173469387755102	101.330298034761	31.3784825437515	
1501507220086.97	0.349397590361446	-0.590361445783133	10.0481927710843	0.176578786020846	0.00980993255671367	9.87860208461067	3976.55677655678	128.0	14.9560785241221	15.7295108711136	0.50381679389313	0.687022900763359	0.16793893129771	-0.171818181818182	0.235454545454545	0.169387755102041	101.327335108805	31.3784825437515	
1501507220106.5	0.337349397590361	-0.590361445783133	10.0602409638554	0.147148988350705	0.029429797670141	9.89822194972409	3980.95238095238	128.0	14.8471267835848	15.7296310738283	0.717557251908397	0.67175572519084	0.0	-0.178181818181818	0.25	0.179591836734694	101.324372183623	31.3784825437515	
1501507220126.03	0.349397590361446	-0.578313253012048	10.0602409638554	0.176578786020846	0.00980993255671367	9.86879215205395	3980.95238095238	128.0	14.9582662135283	15.7372759664785	0.702290076335878	0.67175572519084	0.0305343511450382	-0.175454545454545	0.252727272727273	0.177551020408163	101.327335108805	31.3784825437515	
1501507220145.56	0.36144578313253	-0.614457831325301	10.0481927710843	0.18638871857756	0.0490496627835684	9.88841201716738	3978.02197802198	128.0	14.8477758782438	15.7192936403704	0.82442748091603	0.534351145038168	-0.0305343511450382	-0.170909090909091	0.276363636363636	0.176530612244898	101.327335108805	31.3784825437515	
1501507220165.09	0.349397590361446	-0.602409638554217	10.0481927710843	0.147148988350705	0.029429797670141	9.85898221949724	3961.90476190476	128.0	14.9568237809527	15.7304003712019	0.778625954198473	0.870229007633588	0.0610687022900763	-0.179090909090909	0.231818181818182	0.170408163265306	101.330298034761	31.3784825437515	
1501507220184.62	0.349397590361446	-0.590361445783133	10.0481927710843	0.18638871857756	0.0392397302268547	9.86879215205395	3986.81318681319	128.0	14.849627000049	15.7241017489555	0.67175572519084	0.732824427480916	0.366412213740458	-0.176363636363636	0.239090909090909	0.172448979591837	101.327335108805	31.3784825437515	
1501507220204.15	0.337349397590361	-0.578313253012048	10.0602409638554	0.225628448804414	0.0196198651134273	9.88841201716738	3967.76556776557	128.0	14.7011285663996	15.7162885725047	0.717557251908397	0.946564885496183	0.0763358778625954	-0.170909090909091	0.250909090909091	0.172448979591837	101.327335108805	31.3784825437515	
1501507220223.68	0.36144578313253	-0.578313253012048	10.0481927710843	0.156958920907419	0.0196198651134273	9.91784181483752	3967.76556776557	128.0	14.8514060002255	15.7241498300413	0.625954198473282	0.732824427480916	0.274809160305344	-0.180909090909091	0.246363636363636	0.176530612244898	101.327335108805	31.3784825437515	
1501507220243.21	0.337349397590361	-0.602409638554217	10.0481927710843	0.176578786020846	0.029429797670141	9.89822194972409	3979.48717948718	128.0	14.7002871473973	15.7167934239062	0.931297709923664	0.580152671755725	0.183206106870229	-0.180909090909091	0.246363636363636	0.176530612244898	101.321409259213	31.3784825437515	
1501507220262.74	0.36144578313253	-0.590361445783133	10.0481927710843	0.196198651134273	0.0196198651134273	9.85898221949724	3951.64835164835	128.0	14.8517425678264	15.7299676414292	0.717557251908397	0.641221374045801	0.259541984732824	-0.175454545454545	0.235454545454545	0.164285714285714	101.327335108805	31.3784825437515	
1501507220282.27	0.349397590361446	-0.590361445783133	10.0602409638554	0.18638871857756	0.029429797670141	9.8295524218271	3973.62637362637	128.0	14.7004313906548	15.703979814527	0.656488549618321	0.870229007633588	0.0	-0.172727272727273	0.248181818181818	0.168367346938776	101.336223888992	31.3784825437515	
1501507220301.8	0.349397590361446	-0.602409638554217	10.0481927710843	0.206008583690987	0.0196198651134273	9.83936235438381	3975.09157509157	128.0	14.8533052031166	15.7198465728577	0.809160305343512	0.854961832061069	0.106870229007634	-0.171818181818182	0.246363636363636	0.173469387755102	101.324372183623	31.3784825437515	
1501507220321.33	0.349397590361446	-0.590361445783133	10.0602409638554	0.206008583690987	0.0196198651134273	9.85898221949724	3961.90476190476	128.0	14.7026671611469	15.7153269507877	0.748091603053435	0.748091603053435	0.0	-0.181818181818182	0.245454545454545	0.179591836734694	101.330298034761	31.3784825437515	
1501507220340.86	0.349397590361446	-0.578313253012048	10.0602409638554	0.225628448804414	0.0490496627835684	9.86879215205395	3976.55677655678	128.0	14.712595905375	15.716865545535	0.748091603053435	0.656488549618321	0.229007633587786	-0.178181818181818	0.253636363636364	0.179591836734694	101.327335108805	31.3784825437515	
1501507220360.39	0.36144578313253	-0.590361445783133	10.0602409638554	0.176578786020846	0.029429797670141	9.87860208461067	3966.30036630037	128.0	14.7041336342653	15.7185003024539	0.870229007633588	0.778625954198473	0.183206106870229	-0.18	0.238181818181818	0.168367346938776	101.327335108805	31.3784825437515	
1501507220379.92	0.349397590361446	-0.590361445783133	10.0602409638554	0.137339055793991	0.0392397302268547	9.84917228694053	3970.69597069597	128.0	14.7103601348829	15.7132354235532	0.580152671755725	0.778625954198473	0.0610687022900763	-0.172727272727273	0.236363636363636	0.171428571428571	101.327335108805	31.3784825437515	
1501507220399.45	0.36144578313253	-0.590361445783133	10.0361445783133	0.196198651134273	0.0392397302268547	9.87860208461067	3978.02197802198	128.0	14.7005756339124	15.6964310840485	0.854961832061069	0.580152671755725	0.122137404580153	-0.172727272727273	0.269090909090909	0.177551020408163	101.324372183623	31.3784825437515	
1501507220418.98	0.325301204819277	-0.602409638554217	10.0481927710843	0.156958920907419	0.0490496627835684	9.86879215205395	3976.55677655678	128.0	14.7065136480149	15.6984504896542	0.702290076335878	0.702290076335878	0.0458015267175573	-0.173636363636364	0.237272727272727	0.170408163265306	101.33326096149	31.3784825437515	
1501507220438.51	0.36144578313253	-0.590361445783133	10.0602409638554	0.18638871857756	0.0392397302268547	9.84917228694053	3973.62637362637	128.0	14.7028114044044	15.6932577323823	0.809160305343512	0.67175572519084	0.244274809160305	-0.157272727272727	0.27	0.179591836734694	101.330298034761	31.3784825437515	
1501507220458.04	0.337349397590361	-0.590361445783133	10.0602409638554	0.18638871857756	0.0196198651134273	9.87860208461067	3964.83516483516	128.0	14.7068502156159	15.7115045044626	0.656488549618321	0.717557251908397	0.0305343511450382	-0.180909090909091	0.250909090909091	0.175510204081633	101.321409259213	31.3784825437515	
1501507220477.57	0.337349397590361	-0.578313253012048	10.0481927710843	0.196198651134273	0.00980993255671367	9.88841201716738	3961.90476190476	128.0	14.7048308100101	15.7216255730342	0.67175572519084	0.656488549618321	0.0	-0.18	0.236363636363636	0.166326530612245	101.327335108805	31.3784825437515	
1501507220497.1	0.337349397590361	-0.590361445783133	10.0602409638554	0.215818516247701	0.0490496627835684	9.88841201716738	3953.11355311355	128.0	14.7066819318154	15.7059511390469	0.916030534351145	0.778625954198473	0.0	-0.171818181818182	0.276363636363636	0.183673469387755	101.327335108805	31.3784825437515	
1501507220516.63	0.36144578313253	-0.602409638554217	10.0602409638554	0.166768853464132	0.0490496627835684	9.88841201716738	3970.69597069597	128.0	14.8603731227366	15.7003256520024	0.641221374045801	0.67175572519084	0.106870229007634	-0.174545454545455	0.251818181818182	0.169387755102041	101.321409259213	31.3784825437515	
1501507220536.16	0.337349397590361	-0.590361445783133	10.0602409638554	0.196198651134273	0.00980993255671367	9.86879215205395	3969.23076923077	128.0	14.7031479720054	15.7147018966717	0.83969465648855	0.656488549618321	0.229007633587786	-0.173636363636364	0.251818181818182	0.18265306122449	101.330298034761	31.3784825437515	
1501507220555.69	0.349397590361446	-0.590361445783133	10.0361445783133	0.156958920907419	0.00980993255671367	9.85898221949724	3980.95238095238	128.0	14.8586662441889	15.7099178286296	0.717557251908397	0.763358778625954	0.106870229007634	-0.182727272727273	0.242727272727273	0.177551020408163	101.327335108805	31.3784825437515	
1501507220575.22	0.337349397590361	-0.590361445783133	10.0602409638554	0.166768853464132	0.0196198651134273	9.83936235438381	3976.55677655678	128.0	14.7038451477502	15.7152067480731	0.83969465648855	0.82442748091603	0.0916030534351145	-0.180909090909091	0.25	0.175510204081633	101.327335108805	31.3784825437515	
1501507220594.75	0.325301204819277	-0.614457831325301	10.0361445783133	0.176578786020846	0.029429797670141	9.85898221949724	3936.99633699634	128.0	14.8565987574973	15.7187647484261	0.946564885496183	0.67175572519084	0.137404580152672	-0.181818181818182	0.235454545454545	0.171428571428571	101.318446335577	31.3784825437515	
1501507220614.28	0.337349397590361	-0.602409638554217	10.0481927710843	0.166768853464132	0.0196198651134273	9.83936235438381	3982.41758241758	128.0	14.7022584719171	15.7106871260032	0.900763358778626	0.656488549618321	0.0152671755725191	-0.174545454545455	0.232727272727273	0.168367346938776	101.327335108805	31.3784825437515	
1501507220633.81	0.349397590361446	-0.590361445783133	10.0481927710843	0.166768853464132	-0.00980993255671367	9.90803188228081	3954.57875457875	128.0	14.8557092574091	15.7201350593728	0.809160305343512	0.885496183206107	0.259541984732824	-0.174545454545455	0.258181818181818	0.177551020408163	101.327335108805	31.3784825437515	
1501507220653.34	0.349397590361446	-0.602409638554217	10.0481927710843	0.156958920907419	0.00980993255671367	9.88841201716738	3983.88278388278	128.0	14.7043740396946	15.7153750318736	0.854961832061069	0.687022900763359	0.244274809160305	-0.173636363636364	0.236363636363636	0.174489795918367	101.327335108805	31.3784825437515	
1501507220672.87	0.349397590361446	-0.590361445783133	10.0481927710843	0.196198651134273	0.0196198651134273	9.89822194972409	3973.62637362637	128.0	14.8564064331539	15.7165049373911	0.854961832061069	0.625954198473282	0.0916030534351145	-0.170909090909091	0.242727272727273	0.178571428571429	101.342149746316	31.3784825437515	
1501507220692.4	0.36144578313253	-0.590361445783133	10.0481927710843	0.166768853464132	0.00980993255671367	9.81974248927039	3970.69597069597	128.0	14.9563910511801	15.7243661949276	0.946564885496183	0.732824427480916	0.0458015267175573	-0.179090909090909	0.249090909090909	0.174489795918367	101.33326096149	31.3784825437515	
1501507220711.93	0.349397590361446	-0.590361445783133	10.0722891566265	0.176578786020846	0.029429797670141	9.84917228694053	3979.48717948718	128.0	14.8543389464623	15.7018161656637	0.885496183206107	0.916030534351145	0.152671755725191	-0.181818181818182	0.235454545454545	0.170408163265306	101.330298034761	31.3784825437515	
1501507220731.46	0.337349397590361	-0.578313253012048	10.0481927710843	0.18638871857756	0.0392397302268547	9.83936235438381	3973.62637362637	128.0	14.9582421729853	15.7331650336383	0.717557251908397	0.732824427480916	-0.0152671755725191	-0.181818181818182	0.235454545454545	0.170408163265306	101.327335108805	31.3784825437515	
1501507220750.99	0.337349397590361	-0.590361445783133	10.0602409638554	0.215818516247701	0.00980993255671367	9.88841201716738	3989.74358974359	128.0	14.8529445949727	15.7067444769634	0.763358778625954	0.870229007633588	0.0	-0.172727272727273	0.250909090909091	0.170408163265306	101.321409259213	31.3784825437515	
1501507220770.52	0.349397590361446	-0.590361445783133	10.0602409638554	0.176578786020846	0.029429797670141	9.87860208461067	3969.23076923077	128.0	14.9578334837556	15.7283809655962	0.717557251908397	0.778625954198473	0.152671755725191	-0.182727272727273	0.233636363636364	0.174489795918367	101.324372183623	31.3784825437515	
1501507220790.05	0.337349397590361	-0.602409638554217	10.0481927710843	0.166768853464132	0.0196198651134273	9.89822194972409	3963.36996336996	128.0	14.8528003517151	15.7206399107742	0.564885496183206	0.625954198473282	0.137404580152672	-0.18	0.242727272727273	0.176530612244898	101.327335108805	31.3784825437515	
1501507220809.58	0.349397590361446	-0.590361445783133	10.0602409638554	0.156958920907419	0.0392397302268547	9.81974248927039	3982.41758241758	128.0	14.9579056053844	15.7166732211916	0.977099236641221	0.717557251908397	0.183206106870229	-0.17	0.260909090909091	0.186734693877551	101.315483412714	31.3784825437515	
1501507220829.11	0.325301204819277	-0.566265060240964	10.0602409638554	0.137339055793991	0.0392397302268547	9.89822194972409	3972.16117216117	128.0	14.8728982456007	15.7213370865191	0.687022900763359	0.717557251908397	0.0	-0.181818181818182	0.235454545454545	0.16530612244898	101.336223888992	31.3784825437515	
1501507220848.64	0.349397590361446	-0.590361445783133	10.0602409638554	0.18638871857756	0.0196198651134273	9.86879215205395	3969.23076923077	128.0	14.9584104567858	15.7204235458879	0.992366412213741	0.793893129770992	0.152671755725191	-0.176363636363636	0.247272727272727	0.180612244897959	101.327335108805	31.3784825437515	
1501507220868.17	0.337349397590361	-0.590361445783133	10.0602409638554	0.176578786020846	0.0196198651134273	9.83936235438381	3975.09157509157	128.0	14.8743647187191	15.7126344099801	0.900763358778626	0.732824427480916	0.0305343511450382	-0.174545454545455	0.266363636363636	0.176530612244898	101.327335108805	31.3784825437515	
1501507220887.69	0.349397590361446	-0.590361445783133	10.0602409638554	0.18638871857756	0.0196198651134273	9.89822194972409	3953.11355311355	128.0	14.9575209566976	15.7254961004451	0.763358778625954	0.702290076335878	0.0152671755725191	-0.18	0.237272727272727	0.176530612244898	101.330298034761	31.3784825437515	
1501507220907.22	0.373493975903614	-0.590361445783133	10.0602409638554	0.137339055793991	0.0196198651134273	9.85898221949724	3989.74358974359	128.0	14.8735473402596	15.7029701117242	0.870229007633588	0.885496183206107	0.0916030534351145	-0.181818181818182	0.241818181818182	0.177551020408163	101.321409259213	31.3784825437515	
1501507220926.75	0.349397590361446	-0.602409638554217	10.0481927710843	0.117719190680564	0.00980993255671367	9.83936235438381	3975.09157509157	128.0	14.9546841726324	15.7183320186534	0.610687022900763	0.67175572519084	-0.0763358778625954	-0.168181818181818	0.241818181818182	0.173469387755102	101.327335108805	31.3784825437515	
1501507220946.28	0.349397590361446	-0.602409638554217	10.0602409638554	0.166768853464132	0.0392397302268547	9.83936235438381	3963.36996336996	128.0	14.8729944077724	15.7113362206621	0.82442748091603	0.687022900763359	0.0152671755725191	-0.178181818181818	0.236363636363636	0.172448979591837	101.327335108805	31.3784825437515	
1501507220965.81	0.337349397590361	-0.602409638554217	10.0602409638554	0.206008583690987	0.0490496627835684	9.84917228694053	3980.95238095238	128.0	14.9550447807763	15.7284771277679	0.702290076335878	0.732824427480916	0.0458015267175573	-0.175454545454545	0.245454545454545	0.174489795918367	101.330298034761	31.3784825437515	
1501507220985.34	0.337349397590361	-0.590361445783133	10.0481927710843	0.225628448804414	0.0490496627835684	9.90803188228081	3976.55677655678	128.0	14.8744127998049	15.708162868996	0.610687022900763	0.732824427480916	-0.0152671755725191	-0.170909090909091	0.258181818181818	0.172448979591837	101.336223888992	31.3784825437515	
1501507221004.87	0.36144578313253	-0.578313253012048	10.0481927710843	0.117719190680564	0.029429797670141	9.89822194972409	3978.02197802198	128.0	14.7154326894402	15.715567356217	0.992366412213741	0.854961832061069	0.0916030534351145	-0.181818181818182	0.235454545454545	0.171428571428571	101.342149746316	31.3784825437515	
1501507221024.4	0.349397590361446	-0.578313253012048	10.0481927710843	0.176578786020846	0.0392397302268547	9.8295524218271	3978.02197802198	128.0	14.8774419082135	15.7172261536788	0.778625954198473	0.656488549618321	0.183206106870229	-0.180909090909091	0.246363636363636	0.178571428571429	101.330298034761	31.3784825437515	
1501507221043.93	0.349397590361446	-0.590361445783133	10.0602409638554	0.225628448804414	0.0	9.83936235438381	3970.69597069597	128.0	14.7159615813845	15.7132113830103	0.83969465648855	0.809160305343512	0.198473282442748	-0.17	0.259090909090909	0.185714285714286	101.330298034761	31.3784825437515	
1501507221063.46	0.349397590361446	-0.578313253012048	10.0602409638554	0.18638871857756	0.00980993255671367	9.8295524218271	3989.74358974359	128.0	14.8794853543622	15.7234526542965	0.748091603053435	0.748091603053435	-0.0305343511450382	-0.179090909090909	0.235454545454545	0.168367346938776	101.327335108805	31.3784825437515	
1501507221082.99	0.349397590361446	-0.578313253012048	10.0481927710843	0.176578786020846	0.029429797670141	9.87860208461067	3953.11355311355	128.0	14.7182454329624	15.7083071122536	0.885496183206107	0.580152671755725	0.290076335877863	-0.172727272727273	0.252727272727273	0.174489795918367	101.327335108805	31.3784825437515	
1501507221102.52	0.349397590361446	-0.590361445783133	10.0481927710843	0.196198651134273	0.058859595340282	9.86879215205395	3951.64835164835	128.0	14.8793170705617	15.7108313692607	0.763358778625954	0.748091603053435	0.16793893129771	-0.171818181818182	0.265454545454545	0.180612244897959	101.321409259213	31.3784825437515	
1501507221122.05	0.349397590361446	-0.602409638554217	10.0481927710843	0.196198651134273	0.029429797670141	9.87860208461067	3979.48717948718	128.0	14.715480770526	15.6936664216121	0.778625954198473	0.854961832061069	0.0	-0.179090909090909	0.235454545454545	0.176530612244898	101.321409259213	31.3784825437515	
1501507221141.58	0.349397590361446	-0.578313253012048	10.0481927710843	0.206008583690987	0.0392397302268547	9.86879215205395	3975.09157509157	128.0	14.8787881786173	15.7164568563052	0.900763358778626	0.67175572519084	0.0763358778625954	-0.181818181818182	0.246363636363636	0.181632653061225	101.330298034761	31.3784825437515	
1501507221161.11	0.337349397590361	-0.578313253012048	10.0602409638554	0.166768853464132	-0.0196198651134273	9.87860208461067	3985.34798534799	128.0	14.7173078517883	15.7166972617345	0.748091603053435	0.641221374045801	-0.0916030534351145	-0.172727272727273	0.244545454545455	0.166326530612245	101.327335108805	31.3784825437515	
1501507221180.64	0.349397590361446	-0.590361445783133	10.0602409638554	0.147148988350705	0.0196198651134273	9.87860208461067	3975.09157509157	128.0	14.6881707137629	15.7006141385175	0.687022900763359	0.854961832061069	0.274809160305344	-0.179090909090909	0.236363636363636	0.171428571428571	101.327335108805	31.3784825437515	
1501507221200.17	0.349397590361446	-0.590361445783133	10.0481927710843	0.245248313917842	0.029429797670141	9.84917228694053	3973.62637362637	128.0	14.7216832306007	15.7228997218092	0.717557251908397	0.564885496183206	0.0610687022900763	-0.173636363636364	0.246363636363636	0.173469387755102	101.321409259213	31.3784825437515	
1501507221219.7	0.36144578313253	-0.602409638554217	10.0602409638554	0.206008583690987	0.0196198651134273	9.8295524218271	3970.69597069597	128.0	14.6898775923106	15.7046769902718	0.946564885496183	0.610687022900763	0.137404580152672	-0.173636363636364	0.246363636363636	0.173469387755102	101.327335108805	31.3784825437515	
1501507221239.23	0.349397590361446	-0.590361445783133	10.0602409638554	0.196198651134273	0.0196198651134273	9.87860208461067	3978.02197802198	128.0	14.7229814199187	15.7221544649785	0.778625954198473	0.870229007633588	0.0763358778625954	-0.180909090909091	0.233636363636364	0.174489795918367	101.327335108805	31.3784825437515	
1501507221258.76	0.337349397590361	-0.602409638554217	10.0602409638554	0.215818516247701	0.00980993255671367	9.85898221949724	3958.97435897436	128.0	14.6899977950252	15.7018161656637	0.625954198473282	0.610687022900763	-0.0458015267175573	-0.170909090909091	0.245454545454545	0.178571428571429	101.336223888992	31.3784825437515	
1501507221278.29	0.337349397590361	-0.590361445783133	10.0602409638554	0.147148988350705	-0.00980993255671367	9.85898221949724	3941.39194139194	128.0	14.725794163441	15.7213370865191	0.702290076335878	0.809160305343512	0.137404580152672	-0.17	0.258181818181818	0.18469387755102	101.321409259213	31.3784825437515	
1501507221297.82	0.349397590361446	-0.590361445783133	10.0361445783133	0.255058246474555	0.0	9.87860208461067	3976.55677655678	128.0	14.690719011313	15.7077060986804	0.625954198473282	0.717557251908397	0.152671755725191	-0.181818181818182	0.251818181818182	0.179591836734694	101.327335108805	31.3784825437515	
1501507221317.35	0.36144578313253	-0.590361445783133	10.0602409638554	0.206008583690987	0.00980993255671367	9.87860208461067	3988.27838827839	128.0	14.8293127412771	15.7170097887925	0.717557251908397	0.717557251908397	0.16793893129771	-0.175454545454545	0.246363636363636	0.175510204081633	101.330298034761	31.3784825437515	
1501507221336.88	0.337349397590361	-0.590361445783133	10.0481927710843	0.176578786020846	0.0490496627835684	9.83936235438381	3972.16117216117	128.0	14.6885072813639	15.7137162344117	0.763358778625954	0.870229007633588	0.0	-0.176363636363636	0.235454545454545	0.170408163265306	101.336223888992	31.3784825437515	
1501507221356.41	0.349397590361446	-0.602409638554217	10.0481927710843	0.166768853464132	0.0196198651134273	9.86879215205395	3967.76556776557	128.0	14.8282309168455	15.7020325305501	1.05343511450382	0.717557251908397	0.259541984732824	-0.180909090909091	0.239090909090909	0.175510204081633	101.327335108805	31.3784825437515	
1501507221375.94	0.36144578313253	-0.602409638554217	10.0602409638554	0.196198651134273	0.029429797670141	9.86879215205395	3989.74358974359	128.0	14.6905507275125	15.7087638825691	0.732824427480916	0.656488549618321	0.0610687022900763	-0.174545454545455	0.254545454545454	0.181632653061225	101.327335108805	31.3784825437515	
1501507221395.47	0.337349397590361	-0.590361445783133	10.0481927710843	0.225628448804414	0.00980993255671367	9.87860208461067	3969.23076923077	128.0	14.8269567680705	15.7144855317854	0.748091603053435	0.595419847328244	0.259541984732824	-0.170909090909091	0.239090909090909	0.168367346938776	101.327335108805	31.3784825437515	
1501507221415.0	0.349397590361446	-0.590361445783133	10.0481927710843	0.225628448804414	0.0	9.87860208461067	3963.36996336996	128.0	14.6891563760229	15.700109287116	0.931297709923664	0.900763358778626	0.0458015267175573	-0.181818181818182	0.252727272727273	0.177551020408163	101.327335108805	31.3784825437515	
1501507221434.53	0.36144578313253	-0.578313253012048	10.0481927710843	0.206008583690987	0.0	9.88841201716738	3982.41758241758	128.0	14.8266202004695	15.7122016802075	0.748091603053435	0.778625954198473	0.0	-0.173636363636364	0.261818181818182	0.175510204081633	101.330298034761	31.3784825437515	
1501507221454.06	0.349397590361446	-0.590361445783133	10.0602409638554	0.206008583690987	0.0196198651134273	9.88841201716738	3978.02197802198	128.0	14.6891804165658	15.7100380313442	0.717557251908397	0.610687022900763	0.0916030534351145	-0.175454545454545	0.234545454545455	0.169387755102041	101.321409259213	31.3784825437515	
1501507221473.59	0.349397590361446	-0.590361445783133	10.0722891566265	0.18638871857756	0.00980993255671367	9.92765174739424	3986.81318681319	128.0	14.8250335246365	15.7098457070008	0.748091603053435	0.900763358778626	0.0	-0.182727272727273	0.234545454545455	0.171428571428571	101.324372183623	31.3784825437515	
1501507221493.12	0.36144578313253	-0.590361445783133	10.0481927710843	0.147148988350705	0.0196198651134273	9.91784181483752	3953.11355311355	128.0	14.9526647670267	15.72619327619	0.625954198473282	0.702290076335878	0.122137404580153	-0.175454545454545	0.238181818181818	0.171428571428571	101.327335108805	31.3784825437515	
1501507221512.65	0.337349397590361	-0.602409638554217	10.0481927710843	0.147148988350705	0.0196198651134273	9.85898221949724	3961.90476190476	128.0	14.8236872542326	15.7024652603227	0.870229007633588	0.687022900763359	0.259541984732824	-0.169090909090909	0.238181818181818	0.171428571428571	101.321409259213	31.3784825437515	
1501507221532.18	0.349397590361446	-0.590361445783133	10.0602409638554	0.156958920907419	0.029429797670141	9.83936235438381	3989.74358974359	128.0	14.9501164694766	15.7266500465055	0.870229007633588	0.625954198473282	-0.0916030534351145	-0.182727272727273	0.246363636363636	0.171428571428571	101.321409259213	31.3784825437515	
1501507221551.71	0.349397590361446	-0.590361445783133	10.0602409638554	0.196198651134273	0.0	9.80993255671367	3982.41758241758	128.0	14.8198648079075	15.7040038550699	0.809160305343512	0.67175572519084	0.152671755725191	-0.175454545454545	0.248181818181818	0.179591836734694	101.324372183623	31.3784825437515	
1501507221571.24	0.337349397590361	-0.590361445783133	10.0481927710843	0.176578786020846	0.0490496627835684	9.84917228694053	3956.04395604396	128.0	14.9498760640473	15.7216496135771	0.67175572519084	0.656488549618321	0.0763358778625954	-0.176363636363636	0.235454545454545	0.164285714285714	101.327335108805	31.3784825437515	
1501507221590.77	0.325301204819277	-0.578313253012048	10.0481927710843	0.176578786020846	0.029429797670141	9.86879215205395	3982.41758241758	128.0	14.8198167268217	15.7177069645373	0.687022900763359	0.50381679389313	0.0610687022900763	-0.179090909090909	0.234545454545455	0.172448979591837	101.327335108805	31.3784825437515	
1501507221610.3	0.349397590361446	-0.590361445783133	10.0602409638554	0.176578786020846	0.029429797670141	9.87860208461067	3979.48717948718	128.0	14.9481691854997	15.71008611243	0.885496183206107	0.625954198473282	0.0763358778625954	-0.172727272727273	0.247272727272727	0.173469387755102	101.321409259213	31.3784825437515	
1501507221629.83	0.337349397590361	-0.590361445783133	10.0602409638554	0.196198651134273	0.029429797670141	9.87860208461067	3992.67399267399	128.0	14.8974195993844	15.7155192751311	0.702290076335878	0.809160305343512	0.152671755725191	-0.17	0.24	0.172448979591837	101.330298034761	31.3784825437515	
1501507221649.36	0.349397590361446	-0.614457831325301	10.0602409638554	0.235438381361128	0.0196198651134273	9.83936235438381	3979.48717948718	128.0	14.9494673748176	15.7104467205739	0.82442748091603	0.687022900763359	0.0305343511450382	-0.18	0.248181818181818	0.176530612244898	101.318446335577	31.3784825437515	
1501507221668.89	0.337349397590361	-0.578313253012048	10.0481927710843	0.225628448804414	0.0490496627835684	9.83936235438381	3947.25274725275	128.0	14.8990783968463	15.7189330322265	0.82442748091603	0.656488549618321	0.0763358778625954	-0.165454545454545	0.260909090909091	0.179591836734694	101.330298034761	31.3784825437515	
1501507221688.42	0.36144578313253	-0.602409638554217	10.0481927710843	0.176578786020846	0.0392397302268547	9.86879215205395	3989.74358974359	128.0	14.9475441313836	15.7119612747782	0.809160305343512	0.656488549618321	-0.0305343511450382	-0.176363636363636	0.232727272727273	0.166326530612245	101.327335108805	31.3784825437515	
1501507221707.95	0.337349397590361	-0.602409638554217	10.0602409638554	0.147148988350705	0.0196198651134273	9.85898221949724	3970.69597069597	128.0	14.9022277079695	15.7294627900278	0.610687022900763	0.854961832061069	0.0	-0.179090909090909	0.234545454545455	0.174489795918367	101.321409259213	31.3784825437515	
1501507221727.48	0.36144578313253	-0.590361445783133	10.0481927710843	0.176578786020846	0.0196198651134273	9.86879215205395	3964.83516483516	128.0	14.9498039424186	15.723933465155	0.961832061068702	0.748091603053435	0.106870229007634	-0.177272727272727	0.256363636363636	0.174489795918367	101.324372183623	31.3784825437515	
1501507221747.01	0.36144578313253	-0.590361445783133	10.0481927710843	0.176578786020846	0.0	9.89822194972409	3972.16117216117	128.0	14.9045356000903	15.7154471535024	0.885496183206107	0.763358778625954	0.0458015267175573	-0.162727272727273	0.268181818181818	0.18265306122449	101.321409259213	31.3784825437515	
1501507221766.54	0.349397590361446	-0.602409638554217	10.0481927710843	0.166768853464132	-0.00980993255671367	9.90803188228081	3966.30036630037	128.0	14.9478326178987	15.7121055180358	0.854961832061069	0.778625954198473	0.106870229007634	-0.178181818181818	0.252727272727273	0.18265306122449	101.327335108805	31.3784825437515	
1501507221786.07	0.36144578313253	-0.590361445783133	10.0481927710843	0.18638871857756	0.0196198651134273	9.87860208461067	3975.09157509157	128.0	14.9020834647119	15.7103505584022	0.702290076335878	0.687022900763359	0.106870229007634	-0.175454545454545	0.238181818181818	0.172448979591837	101.33326096149	31.3784825437515	
1501507221805.6	0.337349397590361	-0.578313253012048	10.0602409638554	0.176578786020846	0.0196198651134273	9.84917228694053	3953.11355311355	128.0	14.7381269619616	15.7016478818633	0.83969465648855	0.580152671755725	0.213740458015267	-0.177272727272727	0.233636363636364	0.170408163265306	101.327335108805	31.3784825437515	
1501507221825.13	0.337349397590361	-0.614457831325301	10.0602409638554	0.18638871857756	0.0196198651134273	9.88841201716738	3966.30036630037	128.0	14.9012660862525	15.7150625048156	0.885496183206107	0.732824427480916	0.244274809160305	-0.174545454545455	0.251818181818182	0.170408163265306	101.327335108805	31.3784825437515	
1501507221844.66	0.36144578313253	-0.578313253012048	10.0481927710843	0.166768853464132	0.029429797670141	9.85898221949724	3983.88278388278	128.0	14.7393530296508	15.7147259372146	0.854961832061069	0.748091603053435	-0.0305343511450382	-0.17	0.259090909090909	0.174489795918367	101.327335108805	31.3784825437515	
1501507221864.19	0.36144578313253	-0.590361445783133	10.0481927710843	0.206008583690987	0.0196198651134273	9.83936235438381	3978.02197802198	128.0	14.9021315457978	15.7205918296884	0.82442748091603	0.656488549618321	0.0916030534351145	-0.179090909090909	0.235454545454545	0.177551020408163	101.327335108805	31.3784825437515	
1501507221883.72	0.36144578313253	-0.590361445783133	10.0361445783133	0.166768853464132	0.00980993255671367	9.86879215205395	3958.97435897436	128.0	14.7406993000546	15.704316382128	0.778625954198473	0.67175572519084	0.122137404580153	-0.180909090909091	0.250909090909091	0.175510204081633	101.330298034761	31.3784825437515	
1501507221903.25	0.349397590361446	-0.602409638554217	10.0361445783133	0.18638871857756	0.0392397302268547	9.8295524218271	3942.85714285714	128.0	14.9061703570092	15.7246787219857	0.870229007633588	0.656488549618321	0.16793893129771	-0.176363636363636	0.240909090909091	0.169387755102041	101.327335108805	31.3784825437515	
1501507221922.78	0.349397590361446	-0.602409638554217	10.0481927710843	0.176578786020846	0.029429797670141	9.86879215205395	3978.02197802198	128.0	14.7422138542589	15.7072974094507	0.732824427480916	0.687022900763359	0.0	-0.179090909090909	0.232727272727273	0.166326530612245	101.327335108805	31.3784825437515	
1501507221942.31	0.349397590361446	-0.590361445783133	10.0602409638554	0.127529123237278	0.0392397302268547	9.83936235438381	3976.55677655678	128.0	14.9073243030696	15.7151586669873	0.763358778625954	0.625954198473282	0.152671755725191	-0.176363636363636	0.249090909090909	0.171428571428571	101.321409259213	31.3784825437515	
1501507221961.84	0.349397590361446	-0.602409638554217	10.0602409638554	0.176578786020846	-0.00980993255671367	9.8295524218271	3979.48717948718	128.0	14.7454352870109	15.7147980588434	0.641221374045801	0.625954198473282	0.0	-0.174545454545455	0.257272727272727	0.172448979591837	101.327335108805	31.3784825437515	
1501507221981.37	0.337349397590361	-0.614457831325301	10.0602409638554	0.176578786020846	0.0	9.83936235438381	3961.90476190476	128.0	14.6818961320594	15.7071772067361	0.732824427480916	0.702290076335878	0.152671755725191	-0.18	0.234545454545455	0.175510204081633	101.330298034761	31.3784825437515	
1501507222000.9	0.36144578313253	-0.590361445783133	10.0722891566265	0.215818516247701	0.0196198651134273	9.88841201716738	3982.41758241758	128.0	14.7462526654704	15.7156875589316	0.809160305343512	0.702290076335878	0.0610687022900763	-0.159090909090909	0.272727272727273	0.178571428571429	101.327335108805	31.3784825437515	
1501507222020.43	0.349397590361446	-0.590361445783133	10.0361445783133	0.196198651134273	0.029429797670141	9.88841201716738	3978.02197802198	128.0	14.6799007669966	15.6987149356264	0.82442748091603	0.50381679389313	0.137404580152672	-0.18	0.241818181818182	0.16734693877551	101.327335108805	31.3784825437515	
1501507222039.96	0.325301204819277	-0.602409638554217	10.0602409638554	0.176578786020846	0.0196198651134273	9.84917228694053	3964.83516483516	128.0	14.7471662061015	15.709124490713	0.809160305343512	0.519083969465649	0.0458015267175573	-0.18	0.235454545454545	0.171428571428571	101.327335108805	31.3784825437515	
1501507222059.49	0.337349397590361	-0.602409638554217	10.0481927710843	0.18638871857756	-0.00980993255671367	9.88841201716738	3947.25274725275	128.0	14.6793237939664	15.7123940045509	0.641221374045801	0.763358778625954	0.106870229007634	-0.173636363636364	0.250909090909091	0.168367346938776	101.324372183623	31.3784825437515	
1501507222079.02	0.36144578313253	-0.602409638554217	10.0602409638554	0.176578786020846	-0.029429797670141	9.84917228694053	3980.95238095238	128.0	14.7504116793964	15.7154231129594	0.854961832061069	0.717557251908397	0.213740458015267	-0.175454545454545	0.254545454545454	0.172448979591837	101.321409259213	31.3784825437515	
1501507222098.55	0.349397590361446	-0.590361445783133	10.0602409638554	0.18638871857756	0.029429797670141	9.87860208461067	3982.41758241758	128.0	14.6810787536	15.7108073287178	0.916030534351145	0.732824427480916	0.213740458015267	-0.160909090909091	0.261818181818182	0.181632653061225	101.321409259213	31.3784825437515	
1501507222118.08	0.36144578313253	-0.590361445783133	10.0602409638554	0.176578786020846	0.029429797670141	9.87860208461067	3979.48717948718	128.0	14.7981081165602	15.70655215262	0.778625954198473	0.687022900763359	0.229007633587786	-0.18	0.25	0.177551020408163	101.330298034761	31.3784825437515	
1501507222137.6	0.337349397590361	-0.590361445783133	10.0481927710843	0.176578786020846	0.0196198651134273	9.86879215205395	3961.90476190476	128.0	14.6795401588528	15.7105909638315	0.854961832061069	0.67175572519084	0.0763358778625954	-0.179090909090909	0.239090909090909	0.168367346938776	101.327335108805	31.3784825437515	
1501507222157.13	0.349397590361446	-0.590361445783133	10.0481927710843	0.166768853464132	-0.0196198651134273	9.87860208461067	3989.74358974359	128.0	14.7944539540355	15.7055424498172	0.519083969465649	0.595419847328244	0.106870229007634	-0.175454545454545	0.237272727272727	0.16530612244898	101.330298034761	31.3784825437515	
1501507222176.66	0.349397590361446	-0.602409638554217	10.0481927710843	0.166768853464132	0.00980993255671367	9.84917228694053	3978.02197802198	128.0	14.6783381317065	15.7085955987687	0.854961832061069	0.778625954198473	0.0916030534351145	-0.175454545454545	0.25	0.171428571428571	101.336223888992	31.3784825437515	
1501507222196.19	0.36144578313253	-0.578313253012048	10.0602409638554	0.176578786020846	0.029429797670141	9.85898221949724	3951.64835164835	128.0	14.7947664810935	15.714293207442	0.732824427480916	0.854961832061069	0.0458015267175573	-0.169090909090909	0.251818181818182	0.174489795918367	101.327335108805	31.3784825437515	
1501507222215.72	0.36144578313253	-0.590361445783133	10.0481927710843	0.176578786020846	0.0196198651134273	9.83936235438381	3972.16117216117	128.0	14.6770639829315	15.7002294898307	0.763358778625954	0.610687022900763	0.0610687022900763	-0.18	0.234545454545455	0.180612244897959	101.324372183623	31.3784825437515	
1501507222235.25	0.349397590361446	-0.614457831325301	10.0602409638554	0.196198651134273	0.00980993255671367	9.88841201716738	3948.71794871795	128.0	14.7895977643646	15.700133327659	0.67175572519084	0.656488549618321	0.198473282442748	-0.166363636363636	0.244545454545455	0.174489795918367	101.342149746316	31.3784825437515	
1501507222254.78	0.337349397590361	-0.590361445783133	10.0481927710843	0.137339055793991	-0.00980993255671367	9.90803188228081	3989.74358974359	128.0	14.6773524694466	15.7075858959658	0.625954198473282	0.732824427480916	0.213740458015267	-0.18	0.24	0.170408163265306	101.327335108805	31.3784825437515	
1501507222274.31	0.337349397590361	-0.602409638554217	10.0602409638554	0.176578786020846	0.029429797670141	9.87860208461067	3970.69597069597	128.0	14.7891890751349	15.7059992201327	0.82442748091603	0.717557251908397	0.0	-0.174545454545455	0.257272727272727	0.177551020408163	101.330298034761	31.3784825437515	
1501507222293.84	0.337349397590361	-0.590361445783133	10.0481927710843	0.166768853464132	0.0490496627835684	9.85898221949724	3956.04395604396	128.0	14.938096198014	15.7216015324912	0.809160305343512	0.67175572519084	0.274809160305344	-0.172727272727273	0.250909090909091	0.171428571428571	101.327335108805	31.3784825437515	
1501507222313.37	0.36144578313253	-0.590361445783133	10.0602409638554	0.156958920907419	0.029429797670141	9.89822194972409	3989.74358974359	128.0	14.7844050070928	15.7022008143505	0.809160305343512	0.854961832061069	0.137404580152672	-0.180909090909091	0.235454545454545	0.173469387755102	101.330298034761	31.3784825437515	
1501507222332.9	0.349397590361446	-0.614457831325301	10.0602409638554	0.206008583690987	0.00980993255671367	9.88841201716738	3967.76556776557	128.0	14.9386972115871	15.7269144924777	0.83969465648855	0.748091603053435	0.0610687022900763	-0.171818181818182	0.263636363636364	0.179591836734694	101.321409259213	31.3784825437515	
1501507222352.43	0.349397590361446	-0.578313253012048	10.0602409638554	0.196198651134273	0.029429797670141	9.88841201716738	3966.30036630037	128.0	14.7852704666381	15.6938347054126	0.778625954198473	0.748091603053435	0.0305343511450382	-0.170909090909091	0.247272727272727	0.171428571428571	101.330298034761	31.3784825437515	
1501507222371.96	0.36144578313253	-0.602409638554217	10.0481927710843	0.196198651134273	0.0490496627835684	9.84917228694053	3980.95238095238	128.0	14.9375432655267	15.7274193438791	0.82442748091603	0.67175572519084	0.213740458015267	-0.176363636363636	0.248181818181818	0.173469387755102	101.327335108805	31.3784825437515	
1501507222391.49	0.337349397590361	-0.602409638554217	10.0602409638554	0.196198651134273	0.0392397302268547	9.8295524218271	3979.48717948718	128.0	14.784645412522	15.7145095723283	0.687022900763359	0.82442748091603	0.0	-0.176363636363636	0.255454545454545	0.179591836734694	101.327335108805	31.3784825437515	
1501507222411.02	0.36144578313253	-0.602409638554217	10.0481927710843	0.18638871857756	0.058859595340282	9.86879215205395	3979.48717948718	128.0	14.9371826573828	15.721048600004	0.763358778625954	0.82442748091603	0.183206106870229	-0.174545454545455	0.262727272727273	0.173469387755102	101.324372183623	31.3784825437515	
1501507222430.55	0.337349397590361	-0.590361445783133	10.0602409638554	0.196198651134273	0.0196198651134273	9.88841201716738	3979.48717948718	128.0	14.7820249933432	15.7155433156741	0.778625954198473	0.977099236641221	0.16793893129771	-0.180909090909091	0.237272727272727	0.170408163265306	101.327335108805	31.3784825437515	
1501507222450.08	0.337349397590361	-0.614457831325301	10.0602409638554	0.18638871857756	0.0392397302268547	9.86879215205395	3951.64835164835	128.0	14.9327351569416	15.7014315169769	0.778625954198473	0.702290076335878	0.290076335877863	-0.177272727272727	0.235454545454545	0.179591836734694	101.327335108805	31.3784825437515	
1501507222469.61	0.337349397590361	-0.590361445783133	10.0481927710843	0.18638871857756	0.0196198651134273	9.88841201716738	3976.55677655678	128.0	14.9232631830291	15.7236690191828	0.687022900763359	0.732824427480916	0.198473282442748	-0.175454545454545	0.234545454545455	0.169387755102041	101.330298034761	31.3784825437515	
1501507222489.14	0.337349397590361	-0.602409638554217	10.0481927710843	0.166768853464132	-0.0196198651134273	9.84917228694053	3954.57875457875	128.0	14.9316052514241	15.6963108813339	0.885496183206107	0.610687022900763	0.137404580152672	-0.173636363636364	0.236363636363636	0.173469387755102	101.327335108805	31.3784825437515	
1501507222508.67	0.36144578313253	-0.578313253012048	10.0481927710843	0.176578786020846	-0.0196198651134273	9.80012262415696	3958.97435897436	128.0	14.9199936691912	15.7121295585787	0.809160305343512	0.595419847328244	-0.137404580152672	-0.179090909090909	0.250909090909091	0.18265306122449	101.336223888992	31.3784825437515	
1501507222528.2	0.349397590361446	-0.590361445783133	10.0481927710843	0.206008583690987	0.00980993255671367	9.83936235438381	3978.02197802198	128.0	14.9291290755028	15.71362007224	0.717557251908397	0.809160305343512	0.137404580152672	-0.172727272727273	0.247272727272727	0.170408163265306	101.327335108805	31.3784825437515	
1501507222547.73	0.349397590361446	-0.590361445783133	10.0602409638554	0.18638871857756	0.0196198651134273	9.88841201716738	3967.76556776557	128.0	14.9213158990521	15.7185724240826	0.793893129770992	0.763358778625954	0.0305343511450382	-0.163636363636364	0.284545454545455	0.186734693877551	101.330298034761	31.3784825437515	
1501507222567.26	0.36144578313253	-0.578313253012048	10.0602409638554	0.196198651134273	0.0196198651134273	9.87860208461067	3989.74358974359	128.0	14.9302830215633	15.7253999382734	0.809160305343512	0.595419847328244	-0.0152671755725191	-0.177272727272727	0.231818181818182	0.170408163265306	101.330298034761	31.3784825437515	
1501507222586.79	0.349397590361446	-0.590361445783133	10.0481927710843	0.156958920907419	0.0196198651134273	9.80993255671367	3980.95238095238	128.0	14.9217245882819	15.7200869782869	0.641221374045801	0.732824427480916	0.0	-0.170909090909091	0.235454545454545	0.171428571428571	101.327335108805	31.3784825437515	
1501507222606.32	0.337349397590361	-0.614457831325301	10.0481927710843	0.215818516247701	0.0490496627835684	9.83936235438381	3953.11355311355	128.0	14.7679612757319	15.729727236	0.67175572519084	0.763358778625954	0.137404580152672	-0.168181818181818	0.251818181818182	0.178571428571429	101.336223888992	31.3784825437515	
1501507222625.85	0.337349397590361	-0.602409638554217	10.0481927710843	0.147148988350705	0.0392397302268547	9.8295524218271	3989.74358974359	128.0	14.9260278454655	15.7287175331971	0.977099236641221	0.809160305343512	0.259541984732824	-0.18	0.246363636363636	0.175510204081633	101.321409259213	31.3784825437515	
1501507222645.38	0.349397590361446	-0.602409638554217	10.0602409638554	0.166768853464132	0.0392397302268547	9.80012262415696	3970.69597069597	128.0	14.769523911022	15.7212649648903	0.748091603053435	0.778625954198473	0.229007633587786	-0.176363636363636	0.246363636363636	0.173469387755102	101.330298034761	31.3784825437515	
1501507222664.91	0.349397590361446	-0.578313253012048	10.0361445783133	0.156958920907419	0.0196198651134273	9.86879215205395	3967.76556776557	128.0	14.9281674537858	15.7266500465055	0.748091603053435	0.854961832061069	0.0916030534351145	-0.177272727272727	0.235454545454545	0.171428571428571	101.330298034761	31.3784825437515	
1501507222684.44	0.373493975903614	-0.590361445783133	10.0602409638554	0.196198651134273	-0.00980993255671367	9.90803188228081	3975.09157509157	128.0	14.7718318031428	15.7116727882631	0.732824427480916	0.732824427480916	-0.0763358778625954	-0.181818181818182	0.233636363636364	0.172448979591837	101.321409259213	31.3784825437515	
1501507222703.97	0.337349397590361	-0.590361445783133	10.0722891566265	0.196198651134273	0.0392397302268547	9.88841201716738	3972.16117216117	128.0	14.929393521475	15.7147980588434	0.763358778625954	0.687022900763359	0.0763358778625954	-0.171818181818182	0.243636363636364	0.183673469387755	101.327335108805	31.3784825437515	
1501507222723.5	0.36144578313253	-0.602409638554217	10.0722891566265	0.18638871857756	0.0196198651134273	9.89822194972409	3989.74358974359	128.0	14.7758225332684	15.7182839375675	0.641221374045801	0.82442748091603	0.229007633587786	-0.180909090909091	0.246363636363636	0.177551020408163	101.330298034761	31.3784825437515	
1501507222743.03	0.36144578313253	-0.602409638554217	10.0481927710843	0.18638871857756	0.0	9.86879215205395	3982.41758241758	128.0	14.9302349404774	15.7125622883513	0.687022900763359	0.67175572519084	0.259541984732824	-0.182727272727273	0.254545454545454	0.180612244897959	101.327335108805	31.3784825437515	
1501507222762.56	0.349397590361446	-0.614457831325301	10.0481927710843	0.147148988350705	0.0196198651134273	9.87860208461067	3956.04395604396	128.0	14.7752215196953	15.7194619241709	0.748091603053435	0.763358778625954	0.152671755725191	-0.181818181818182	0.235454545454545	0.169387755102041	101.327335108805	31.3784825437515	
1501507222782.09	0.349397590361446	-0.602409638554217	10.0722891566265	0.166768853464132	-0.00980993255671367	9.84917228694053	3989.74358974359	128.0	14.6771120640173	15.7093168150564	0.763358778625954	0.870229007633588	0.152671755725191	-0.179090909090909	0.233636363636364	0.171428571428571	101.327335108805	31.3784825437515	
1501507222801.62	0.349397590361446	-0.578313253012048	10.0602409638554	0.166768853464132	0.0	9.80012262415696	3963.36996336996	128.0	14.7787795200482	15.720062937744	0.732824427480916	0.717557251908397	0.0305343511450382	-0.170909090909091	0.260909090909091	0.172448979591837	101.327335108805	31.3784825437515	
1501507222821.15	0.337349397590361	-0.566265060240964	10.0602409638554	0.176578786020846	0.00980993255671367	9.85898221949724	3969.23076923077	128.0	14.6764870099012	15.7022729359793	0.809160305343512	0.809160305343512	0.16793893129771	-0.172727272727273	0.235454545454545	0.169387755102041	101.327335108805	31.3784825437515	
1501507222840.68	0.349397590361446	-0.578313253012048	10.0602409638554	0.176578786020846	0.0196198651134273	9.90803188228081	3976.55677655678	128.0	14.7790199254775	15.7032585982393	0.854961832061069	0.83969465648855	0.0152671755725191	-0.18	0.246363636363636	0.181632653061225	101.327335108805	31.3784825437515	
1501507222860.21	0.349397590361446	-0.602409638554217	10.0722891566265	0.206008583690987	0.00980993255671367	9.84917228694053	3973.62637362637	128.0	14.6780496451914	15.7134758289825	0.778625954198473	0.687022900763359	0.259541984732824	-0.18	0.252727272727273	0.177551020408163	101.327335108805	31.3784825437515	
1501507222879.74	0.36144578313253	-0.590361445783133	10.0602409638554	0.166768853464132	0.0196198651134273	9.86879215205395	3988.27838827839	128.0	14.7808229661969	15.7115766260914	0.977099236641221	0.748091603053435	-0.0152671755725191	-0.181818181818182	0.238181818181818	0.172448979591837	101.327335108805	31.3784825437515	
1501507222899.27	0.349397590361446	-0.590361445783133	10.0722891566265	0.156958920907419	0.0490496627835684	9.83936235438381	3978.02197802198	128.0	14.6778092397621	15.7144374506995	0.702290076335878	0.748091603053435	0.106870229007634	-0.18	0.235454545454545	0.174489795918367	101.342149746316	31.3784825437515	
1501507222918.8	0.337349397590361	-0.590361445783133	10.0361445783133	0.18638871857756	0.00980993255671367	9.87860208461067	3961.90476190476	128.0	14.7635858969195	15.7084032744253	0.687022900763359	0.656488549618321	0.106870229007634	-0.173636363636364	0.256363636363636	0.170408163265306	101.330298034761	31.3784825437515	
1501507222938.33	0.349397590361446	-0.578313253012048	10.0481927710843	0.166768853464132	0.00980993255671367	9.88841201716738	3976.55677655678	128.0	14.6767033747876	15.7036192063831	0.793893129770992	0.732824427480916	-0.0458015267175573	-0.17	0.243636363636364	0.183673469387755	101.327335108805	31.3784825437515	
1501507222957.86	0.337349397590361	-0.614457831325301	10.0481927710843	0.166768853464132	0.0392397302268547	9.85898221949724	3958.97435897436	128.0	14.7601000181953	15.6900122590874	0.778625954198473	0.641221374045801	0.0763358778625954	-0.177272727272727	0.25	0.177551020408163	101.336223888992	31.3784825437515	
1501507222977.39	0.349397590361446	-0.590361445783133	10.0361445783133	0.166768853464132	-0.00980993255671367	9.89822194972409	3960.43956043956	128.0	14.6736983069219	15.6930173269531	0.717557251908397	0.717557251908397	0.183206106870229	-0.18	0.255454545454545	0.180612244897959	101.321409259213	31.3784825437515	
1501507222996.92	0.469879518072289	-0.63855421686747	10.0240963855422	0.196198651134273	-0.0980993255671367	9.7608828939301	3978.02197802198	128.0	14.7571430314155	15.699171705942	0.748091603053435	0.702290076335878	-0.106870229007634	-0.17	0.255454545454545	0.175510204081633	101.327335108805	31.3784825437515	
1501507223016.45	0.349397590361446	-0.614457831325301	10.0963855421687	0.196198651134273	-0.0784794604537094	9.84917228694053	3979.48717948718	128.0	14.6729530500912	15.7010228277472	0.854961832061069	0.580152671755725	0.0610687022900763	-0.177272727272727	0.235454545454545	0.171428571428571	101.321409259213	31.3784825437515	
1501507223035.98	0.337349397590361	-0.602409638554217	10.0602409638554	0.196198651134273	-0.0196198651134273	9.84917228694053	3979.48717948718	128.0	14.7555082744966	15.7048452740723	0.809160305343512	0.82442748091603	0.106870229007634	-0.172727272727273	0.256363636363636	0.172448979591837	101.323029128565	31.3843174458419	
1501507223055.51	0.240963855421687	-0.614457831325301	10.0481927710843	0.088289393010423	0.147148988350705	9.89822194972409	3979.48717948718	128.0	14.6739387123512	15.7049895173299	0.870229007633588	0.610687022900763	0.0305343511450382	-0.173636363636364	0.236363636363636	0.171428571428571	101.328955052025	31.3843174458419	
1501507223075.04	0.325301204819277	-0.602409638554217	9.98795180722892	0.127529123237278	0.0784794604537094	9.89822194972409	3950.18315018315	128.0	14.7583210180188	15.7183320186534	0.519083969465649	0.793893129770992	0.198473282442748	-0.18	0.245454545454545	0.177551020408163	101.328955052025	31.3843174458419	
1501507223094.57	0.373493975903614	-0.590361445783133	10.0481927710843	0.176578786020846	0.00980993255671367	9.8295524218271	3989.74358974359	128.0	14.9177098176133	15.7093648961423	0.83969465648855	0.442748091603053	-0.0458015267175573	-0.182727272727273	0.248181818181818	0.173469387755102	101.328955052025	31.3843174458419	
1501507223114.1	0.337349397590361	-0.590361445783133	10.0722891566265	0.206008583690987	0.0392397302268547	9.86879215205395	3961.90476190476	128.0	14.7558448420975	15.699796760058	0.778625954198473	0.610687022900763	-0.0152671755725191	-0.18	0.234545454545455	0.173469387755102	101.337843943014	31.3843174458419	
1501507223133.63	0.337349397590361	-0.590361445783133	10.0361445783133	0.18638871857756	0.00980993255671367	9.88841201716738	3964.83516483516	128.0	14.9175896148987	15.722947802895	0.717557251908397	0.687022900763359	0.137404580152672	-0.173636363636364	0.250909090909091	0.18265306122449	101.328955052025	31.3843174458419	
1501507223153.16	0.325301204819277	-0.578313253012048	10.0722891566265	0.196198651134273	0.0196198651134273	9.84917228694053	3982.41758241758	128.0	14.7527436120602	15.7046769902718	0.732824427480916	0.809160305343512	0.0763358778625954	-0.173636363636364	0.251818181818182	0.169387755102041	101.323029128565	31.3843174458419	
1501507223172.69	0.325301204819277	-0.626506024096386	10.0361445783133	0.176578786020846	0.0196198651134273	9.92765174739424	3975.09157509157	128.0	14.9144162632326	15.7239815462408	0.778625954198473	0.854961832061069	0.0916030534351145	-0.172727272727273	0.236363636363636	0.172448979591837	101.323029128565	31.3843174458419	
1501507223192.22	0.373493975903614	-0.578313253012048	10.0602409638554	0.156958920907419	0.0	9.81974248927039	3989.74358974359	128.0	14.7532965445475	15.7124901667226	0.763358778625954	0.717557251908397	0.183206106870229	-0.180909090909091	0.246363636363636	0.177551020408163	101.328955052025	31.3843174458419	
1501507223211.75	0.36144578313253	-0.614457831325301	10.0481927710843	0.137339055793991	0.00980993255671367	9.83936235438381	3979.48717948718	128.0	14.9148730335482	15.7111198557758	0.534351145038168	0.82442748091603	0.0458015267175573	-0.180909090909091	0.246363636363636	0.177551020408163	101.331918014915	31.3843174458419	
1501507223231.28	0.337349397590361	-0.614457831325301	10.0722891566265	0.196198651134273	0.0	9.85898221949724	3961.90476190476	128.0	14.7502674361389	15.7148701804722	0.870229007633588	0.732824427480916	0.106870229007634	-0.180909090909091	0.235454545454545	0.168367346938776	101.328955052025	31.3843174458419	
1501507223250.81	0.337349397590361	-0.602409638554217	10.0602409638554	0.225628448804414	0.0	9.84917228694053	3983.88278388278	128.0	14.9132863577151	15.7139325992981	0.916030534351145	0.595419847328244	0.381679389312977	-0.174545454545455	0.258181818181818	0.175510204081633	101.323029128565	31.3843174458419	
1501507223270.34	0.337349397590361	-0.590361445783133	10.0602409638554	0.196198651134273	0.0	9.86879215205395	3976.55677655678	128.0	14.9395145900466	15.7219381000922	0.793893129770992	0.793893129770992	0.244274809160305	-0.170909090909091	0.261818181818182	0.177551020408163	101.331918014915	31.3843174458419	
1501507223289.87	0.349397590361446	-0.578313253012048	10.0481927710843	0.196198651134273	0.0196198651134273	9.88841201716738	3964.83516483516	128.0	14.9110986683089	15.7053020443879	0.946564885496183	0.83969465648855	0.0152671755725191	-0.177272727272727	0.237272727272727	0.175510204081633	101.323029128565	31.3843174458419	
1501507223309.4	0.36144578313253	-0.578313253012048	10.0481927710843	0.18638871857756	0.0196198651134273	9.85898221949724	3964.83516483516	128.0	14.9371826573828	15.7042202199563	0.778625954198473	0.67175572519084	-0.0916030534351145	-0.178181818181818	0.242727272727273	0.176530612244898	101.325992089909	31.3843174458419	
1501507223328.93	0.349397590361446	-0.602409638554217	10.0722891566265	0.176578786020846	-0.00980993255671367	9.88841201716738	3979.48717948718	128.0	14.90847824913	15.7133556262679	0.702290076335878	0.687022900763359	0.0763358778625954	-0.170909090909091	0.240909090909091	0.169387755102041	101.331918014915	31.3843174458419	
1501507223348.46	0.36144578313253	-0.590361445783133	10.0602409638554	0.196198651134273	-0.00980993255671367	9.86879215205395	3989.74358974359	128.0	14.9398992387334	15.7144855317854	0.687022900763359	0.687022900763359	0.152671755725191	-0.18	0.234545454545455	0.172448979591837	101.328955052025	31.3843174458419	
1501507223367.99	0.385542168674699	-0.590361445783133	10.0481927710843	0.206008583690987	-0.00980993255671367	9.87860208461067	3980.95238095238	128.0	14.9078051139281	15.7215774919483	0.916030534351145	0.610687022900763	0.0458015267175573	-0.173636363636364	0.245454545454545	0.175510204081633	101.328955052025	31.3843174458419	
1501507223387.52	0.36144578313253	-0.590361445783133	10.0481927710843	0.196198651134273	-0.00980993255671367	9.88841201716738	3961.90476190476	128.0	14.9412455091372	15.7135719911542	0.793893129770992	0.763358778625954	0.0305343511450382	-0.173636363636364	0.252727272727273	0.169387755102041	101.328955052025	31.3843174458419	
1501507223407.05	0.325301204819277	-0.590361445783133	10.0361445783133	0.176578786020846	0.0196198651134273	9.83936235438381	3983.88278388278	128.0	14.7988293328479	15.7198225323148	0.83969465648855	0.717557251908397	0.0763358778625954	-0.174545454545455	0.255454545454545	0.18265306122449	101.331918014915	31.3843174458419	
1501507223426.57	0.337349397590361	-0.578313253012048	10.0602409638554	0.196198651134273	0.0196198651134273	9.86879215205395	3970.69597069597	128.0	14.940981063165	15.7220583028068	0.610687022900763	0.83969465648855	0.106870229007634	-0.179090909090909	0.244545454545455	0.175510204081633	101.323029128565	31.3843174458419	
1501507223446.1	0.349397590361446	-0.590361445783133	10.0481927710843	0.196198651134273	0.00980993255671367	9.83936235438381	3972.16117216117	128.0	14.8014737925697	15.7080667068243	0.732824427480916	0.763358778625954	0.0305343511450382	-0.170909090909091	0.252727272727273	0.177551020408163	101.334880978578	31.3843174458419	
1501507223465.63	0.349397590361446	-0.602409638554217	10.0481927710843	0.18638871857756	0.0196198651134273	9.87860208461067	3979.48717948718	128.0	14.9424715768264	15.7284771277679	0.793893129770992	0.748091603053435	0.0610687022900763	-0.173636363636364	0.26	0.18265306122449	101.328955052025	31.3843174458419	
1501507223485.16	0.373493975903614	-0.602409638554217	10.0481927710843	0.206008583690987	0.0	9.88841201716738	3975.09157509157	128.0	14.8027719818877	15.7148220993863	0.67175572519084	0.778625954198473	0.229007633587786	-0.179090909090909	0.245454545454545	0.175510204081633	101.328955052025	31.3843174458419	
1501507223504.69	0.349397590361446	-0.602409638554217	10.0602409638554	0.137339055793991	0.0196198651134273	9.90803188228081	3989.74358974359	128.0	14.9444669418892	15.7041000172416	0.82442748091603	0.610687022900763	0.274809160305344	-0.174545454545455	0.253636363636364	0.171428571428571	101.323029128565	31.3843174458419	
1501507223524.22	0.385542168674699	-0.566265060240964	10.0722891566265	0.284488044144696	-0.176578786020846	10.0159411404047	3970.69597069597	128.0	14.805224117266	15.721048600004	0.809160305343512	0.763358778625954	0.122137404580153	-0.18	0.230909090909091	0.173469387755102	101.323029128565	31.3843174458419	
1501507223543.75	0.313253012048193	-0.602409638554217	10.1325301204819	0.225628448804414	0.0196198651134273	9.86879215205395	3951.64835164835	128.0	14.9461497798939	15.714293207442	0.854961832061069	0.687022900763359	0.0305343511450382	-0.181818181818182	0.242727272727273	0.179591836734694	101.328955052025	31.3843174458419	
1501507223563.28	0.337349397590361	-0.602409638554217	10.0481927710843	0.156958920907419	-0.00980993255671367	9.98651134273452	3979.48717948718	128.0	14.8035893603471	15.7181637348529	0.595419847328244	1.34351145038168	-0.0305343511450382	-0.171818181818182	0.24	0.171428571428571	101.331918014915	31.3843174458419	
1501507223582.81	0.349397590361446	-0.590361445783133	10.0481927710843	0.166768853464132	0.029429797670141	9.85898221949724	3963.36996336996	128.0	14.6794920777669	15.7092446934276	0.641221374045801	0.82442748091603	0.152671755725191	-0.180909090909091	0.238181818181818	0.169387755102041	101.328955052025	31.3843174458419	
1501507223602.34	0.36144578313253	-0.590361445783133	10.0361445783133	0.196198651134273	0.029429797670141	9.86879215205395	3972.16117216117	128.0	14.8051519956373	15.7196302079714	0.885496183206107	0.473282442748092	0.122137404580153	-0.177272727272727	0.247272727272727	0.178571428571429	101.328955052025	31.3843174458419	
1501507223621.87	0.349397590361446	-0.578313253012048	10.0361445783133	0.117719190680564	0.0	9.90803188228081	3982.41758241758	128.0	14.6780977262772	15.7003977736312	0.931297709923664	0.809160305343512	-0.0610687022900763	-0.171818181818182	0.250909090909091	0.171428571428571	101.328955052025	31.3843174458419	
1501507223641.4	0.337349397590361	-0.602409638554217	10.0481927710843	0.215818516247701	0.029429797670141	9.91784181483752	3976.55677655678	128.0	14.8097918204218	15.7254239788163	0.885496183206107	0.641221374045801	0.0	-0.179090909090909	0.236363636363636	0.174489795918367	101.323029128565	31.3843174458419	
1501507223660.93	0.349397590361446	-0.602409638554217	10.0722891566265	0.147148988350705	0.029429797670141	9.8295524218271	3985.34798534799	128.0	14.6818480509736	15.7050616389587	0.732824427480916	0.748091603053435	0.122137404580153	-0.179090909090909	0.24	0.175510204081633	101.328955052025	31.3843174458419	
1501507223680.46	0.337349397590361	-0.590361445783133	10.0481927710843	0.18638871857756	0.029429797670141	9.84917228694053	3976.55677655678	128.0	14.8079647391595	15.7013113142623	0.748091603053435	0.67175572519084	0.0458015267175573	-0.167272727272727	0.251818181818182	0.178571428571429	101.331918014915	31.3843174458419	
1501507223699.99	0.36144578313253	-0.602409638554217	10.0481927710843	0.166768853464132	0.0196198651134273	9.87860208461067	3947.25274725275	128.0	14.6789391452796	15.7103024773164	0.763358778625954	0.641221374045801	0.259541984732824	-0.167272727272727	0.251818181818182	0.178571428571429	101.328955052025	31.3843174458419	
1501507223719.52	0.337349397590361	-0.578313253012048	10.0481927710843	0.166768853464132	0.029429797670141	9.90803188228081	3986.81318681319	128.0	14.8109217259393	15.7170097887925	0.702290076335878	0.732824427480916	0.16793893129771	-0.178181818181818	0.246363636363636	0.179591836734694	101.331918014915	31.3843174458419	
1501507223739.05	0.337349397590361	-0.590361445783133	10.0481927710843	0.166768853464132	0.0490496627835684	9.85898221949724	3972.16117216117	128.0	14.6825692672613	15.7114323828338	0.83969465648855	0.748091603053435	0.0763358778625954	-0.174545454545455	0.235454545454545	0.171428571428571	101.323029128565	31.3843174458419	
1501507223758.58	0.36144578313253	-0.578313253012048	10.0602409638554	0.196198651134273	0.0490496627835684	9.84917228694053	3972.16117216117	128.0	14.7340160291214	15.7024412197798	0.83969465648855	0.870229007633588	0.0152671755725191	-0.177272727272727	0.236363636363636	0.178571428571429	101.328955052025	31.3843174458419	
1501507223778.11	0.36144578313253	-0.590361445783133	10.0722891566265	0.215818516247701	0.0490496627835684	9.92765174739424	3967.76556776557	128.0	14.6795401588528	15.6965512867631	0.717557251908397	0.809160305343512	0.152671755725191	-0.173636363636364	0.251818181818182	0.181632653061225	101.328955052025	31.3843174458419	
1501507223797.64	0.337349397590361	-0.602409638554217	10.0481927710843	0.196198651134273	0.029429797670141	9.91784181483752	3973.62637362637	128.0	14.730914799084	15.6953733001598	0.610687022900763	0.656488549618321	0.0916030534351145	-0.162727272727273	0.251818181818182	0.171428571428571	101.328955052025	31.3843174458419	
1501507223817.17	0.349397590361446	-0.602409638554217	10.0481927710843	0.176578786020846	0.00980993255671367	9.88841201716738	3979.48717948718	128.0	14.6810306725141	15.695613705589	0.67175572519084	0.82442748091603	0.0152671755725191	-0.181818181818182	0.253636363636364	0.183673469387755	101.328955052025	31.3843174458419	
1501507223836.7	0.349397590361446	-0.602409638554217	10.0602409638554	0.166768853464132	0.0196198651134273	9.88841201716738	3979.48717948718	128.0	14.7294723665085	15.6977052328235	0.870229007633588	0.564885496183206	0.183206106870229	-0.173636363636364	0.262727272727273	0.177551020408163	101.328955052025	31.3843174458419	
1501507223856.23	0.337349397590361	-0.602409638554217	10.0361445783133	0.176578786020846	0.0392397302268547	9.88841201716738	3960.43956043956	128.0	14.6815595644585	15.7111679368617	0.83969465648855	0.854961832061069	0.229007633587786	-0.178181818181818	0.236363636363636	0.171428571428571	101.323029128565	31.3843174458419	
1501507223875.76	0.337349397590361	-0.578313253012048	10.0602409638554	0.206008583690987	0.00980993255671367	9.88841201716738	3985.34798534799	128.0	14.7268279067867	15.6968397732782	0.885496183206107	0.717557251908397	0.0458015267175573	-0.18	0.233636363636364	0.176530612244898	101.323029128565	31.3843174458419	
1501507223895.29	0.349397590361446	-0.602409638554217	10.0481927710843	0.176578786020846	-0.00980993255671367	9.90803188228081	3982.41758241758	128.0	14.891770071797	15.7100380313442	0.778625954198473	0.778625954198473	0.274809160305344	-0.178181818181818	0.238181818181818	0.174489795918367	101.331918014915	31.3843174458419	
1501507223914.82	0.349397590361446	-0.590361445783133	10.0602409638554	0.196198651134273	-0.0196198651134273	9.80993255671367	3970.69597069597	128.0	14.7277414474179	15.7077541797663	0.809160305343512	0.717557251908397	0.0305343511450382	-0.172727272727273	0.239090909090909	0.170408163265306	101.325992089909	31.3843174458419	
1501507223934.35	0.337349397590361	-0.590361445783133	10.0602409638554	0.156958920907419	-0.0196198651134273	9.85898221949724	3979.48717948718	128.0	14.8928518962286	15.7185003024539	0.67175572519084	0.83969465648855	0.183206106870229	-0.180909090909091	0.245454545454545	0.174489795918367	101.328955052025	31.3843174458419	
1501507223953.88	0.337349397590361	-0.602409638554217	10.0602409638554	0.18638871857756	0.0196198651134273	9.84917228694053	3978.02197802198	128.0	14.7286309475061	15.7031864766105	0.534351145038168	0.717557251908397	0.152671755725191	-0.178181818181818	0.245454545454545	0.179591836734694	101.328955052025	31.3843174458419	
1501507223973.41	0.349397590361446	-0.602409638554217	10.0602409638554	0.18638871857756	0.00980993255671367	9.85898221949724	3989.74358974359	128.0	14.8918662339687	15.7144855317854	0.687022900763359	0.946564885496183	0.122137404580153	-0.17	0.273636363636364	0.18265306122449	101.328955052025	31.3843174458419	
1501507223992.94	0.349397590361446	-0.602409638554217	10.0481927710843	0.156958920907419	0.0392397302268547	9.83936235438381	3978.02197802198	128.0	14.7279818528472	15.709124490713	0.778625954198473	0.702290076335878	0.152671755725191	-0.180909090909091	0.236363636363636	0.177551020408163	101.328955052025	31.3843174458419	
1501507224012.47	0.349397590361446	-0.590361445783133	10.0361445783133	0.176578786020846	0.0196198651134273	9.83936235438381	3956.04395604396	128.0	14.8917219907111	15.7104707611168	0.564885496183206	0.870229007633588	0.16793893129771	-0.171818181818182	0.235454545454545	0.172448979591837	101.328955052025	31.3843174458419	
1501507224032.0	0.337349397590361	-0.590361445783133	10.0602409638554	0.18638871857756	0.0196198651134273	9.85898221949724	3978.02197802198	128.0	14.7276452852462	15.7052299227591	0.732824427480916	0.473282442748092	0.244274809160305	-0.166363636363636	0.26	0.18265306122449	101.327335108805	31.3784825437515	
1501507224051.53	0.337349397590361	-0.566265060240964	10.0361445783133	0.176578786020846	0.0490496627835684	9.80993255671367	3969.23076923077	128.0	14.8906161257366	15.7071050851073	0.717557251908397	0.793893129770992	0.290076335877863	-0.18	0.248181818181818	0.179591836734694	101.330298034761	31.3784825437515	
1501507224071.06	0.36144578313253	-0.578313253012048	10.0481927710843	0.18638871857756	0.0392397302268547	9.87860208461067	3967.76556776557	128.0	14.950621320878	15.7322034119213	0.778625954198473	0.534351145038168	0.274809160305344	-0.179090909090909	0.256363636363636	0.176530612244898	101.321409259213	31.3784825437515	
1501507224090.59	0.337349397590361	-0.590361445783133	10.0722891566265	0.196198651134273	0.0686695278969957	9.88841201716738	3979.48717948718	128.0	14.8892458147898	15.7161443292472	0.83969465648855	0.67175572519084	0.213740458015267	-0.177272727272727	0.235454545454545	0.169387755102041	101.330298034761	31.3784825437515	
1501507224110.12	0.349397590361446	-0.590361445783133	10.0361445783133	0.215818516247701	0.0196198651134273	9.87860208461067	3976.55677655678	128.0	14.9523762805116	15.7160000859896	0.549618320610687	0.748091603053435	0.183206106870229	-0.183636363636364	0.236363636363636	0.176530612244898	101.342149746316	31.3784825437515	
1501507224129.65	0.36144578313253	-0.614457831325301	10.0481927710843	0.176578786020846	0.058859595340282	9.81974248927039	3969.23076923077	128.0	14.887899544386	15.7188849511407	0.748091603053435	0.687022900763359	0.274809160305344	-0.176363636363636	0.239090909090909	0.171428571428571	101.327335108805	31.3784825437515	
1501507224149.18	0.349397590361446	-0.590361445783133	10.0602409638554	0.18638871857756	0.029429797670141	9.84917228694053	3975.09157509157	128.0	14.9532417400569	15.7178992888807	0.67175572519084	0.793893129770992	0.0610687022900763	-0.171818181818182	0.237272727272727	0.168367346938776	101.321409259213	31.3784825437515	
1501507224168.71	0.337349397590361	-0.602409638554217	10.0481927710843	0.176578786020846	0.029429797670141	9.85898221949724	3953.11355311355	128.0	14.8872023686412	15.7159760454467	0.687022900763359	0.564885496183206	0.152671755725191	-0.180909090909091	0.253636363636364	0.175510204081633	101.321409259213	31.3784825437515	
1501507224188.24	0.337349397590361	-0.590361445783133	10.0361445783133	0.18638871857756	0.029429797670141	9.86879215205395	3976.55677655678	128.0	14.9504770776205	15.7083071122536	1.00763358778626	0.732824427480916	-0.0152671755725191	-0.177272727272727	0.251818181818182	0.178571428571429	101.327335108805	31.3784825437515	
1501507224207.77	0.337349397590361	-0.578313253012048	10.0602409638554	0.156958920907419	0.00980993255671367	9.88841201716738	3967.76556776557	128.0	14.8320533631706	15.726818330306	0.687022900763359	0.916030534351145	0.106870229007634	-0.169090909090909	0.277272727272727	0.18469387755102	101.327335108805	31.3784825437515	
1501507224227.3	0.337349397590361	-0.590361445783133	10.0361445783133	0.206008583690987	0.0196198651134273	9.87860208461067	3964.83516483516	128.0	14.953217699514	15.7141970452703	0.778625954198473	0.564885496183206	0.198473282442748	-0.174545454545455	0.258181818181818	0.171428571428571	101.327335108805	31.3784825437515	
1501507224246.83	0.36144578313253	-0.590361445783133	10.0361445783133	0.176578786020846	0.029429797670141	9.87860208461067	3973.62637362637	128.0	14.8333515524886	15.7216255730342	0.763358778625954	0.778625954198473	0.0152671755725191	-0.171818181818182	0.252727272727273	0.170408163265306	101.321409259213	31.3784825437515	
1501507224266.36	0.337349397590361	-0.626506024096386	10.0481927710843	0.156958920907419	0.0	9.91784181483752	3973.62637362637	128.0	14.9534340644003	15.7209043567464	0.748091603053435	0.793893129770992	0.229007633587786	-0.181818181818182	0.239090909090909	0.176530612244898	101.327335108805	31.3784825437515	
1501507224285.89	0.349397590361446	-0.578313253012048	10.0361445783133	0.176578786020846	0.029429797670141	9.81974248927039	3978.02197802198	128.0	14.8354911608089	15.7129709775811	0.656488549618321	0.656488549618321	0.198473282442748	-0.180909090909091	0.253636363636364	0.178571428571429	101.321409259213	31.3784825437515	
1501507224305.42	0.349397590361446	-0.578313253012048	10.0602409638554	0.206008583690987	0.00980993255671367	9.80993255671367	3975.09157509157	128.0	14.9517512263955	15.7208562756605	0.687022900763359	0.763358778625954	0.152671755725191	-0.181818181818182	0.235454545454545	0.170408163265306	101.330298034761	31.3784825437515	
1501507224324.95	0.36144578313253	-0.614457831325301	10.0361445783133	0.206008583690987	0.0196198651134273	9.80012262415696	3957.50915750916	128.0	14.8369816744703	15.718452221368	0.717557251908397	0.763358778625954	0.229007633587786	-0.178181818181818	0.235454545454545	0.171428571428571	101.324372183623	31.3784825437515	
1501507224344.48	0.337349397590361	-0.590361445783133	10.0481927710843	0.196198651134273	0.0490496627835684	9.8295524218271	3986.81318681319	128.0	14.9546360915465	15.7070810445644	0.931297709923664	0.625954198473282	0.33587786259542	-0.165454545454545	0.257272727272727	0.178571428571429	101.321409259213	31.3784825437515	
1501507224364.01	0.349397590361446	-0.590361445783133	10.0481927710843	0.18638871857756	0.0392397302268547	9.84917228694053	3970.69597069597	128.0	14.8383279448741	15.7205197080596	0.870229007633588	0.717557251908397	0.213740458015267	-0.171818181818182	0.238181818181818	0.169387755102041	101.330298034761	31.3784825437515	
1501507224383.54	0.36144578313253	-0.590361445783133	10.0481927710843	0.18638871857756	0.0196198651134273	9.87860208461067	3969.23076923077	128.0	14.6943972143806	15.7120093558641	0.977099236641221	0.687022900763359	0.106870229007634	-0.180909090909091	0.244545454545455	0.179591836734694	101.327335108805	31.3784825437515	
1501507224403.07	0.349397590361446	-0.590361445783133	10.0602409638554	0.18638871857756	0.0392397302268547	9.8295524218271	3979.48717948718	128.0	14.8394578503916	15.7177310050803	0.748091603053435	0.702290076335878	0.244274809160305	-0.171818181818182	0.250909090909091	0.178571428571429	101.327335108805	31.3784825437515	
1501507224422.6	0.337349397590361	-0.602409638554217	10.0602409638554	0.196198651134273	0.0490496627835684	9.86879215205395	3978.02197802198	128.0	14.6949741874108	15.7063117471908	0.595419847328244	0.748091603053435	0.16793893129771	-0.18	0.236363636363636	0.170408163265306	101.327335108805	31.3784825437515	
1501507224442.13	0.36144578313253	-0.578313253012048	10.0722891566265	0.156958920907419	0.0490496627835684	9.83936235438381	3988.27838827839	128.0	14.8392174449624	15.7095572204857	0.748091603053435	0.732824427480916	0.152671755725191	-0.176363636363636	0.235454545454545	0.173469387755102	101.342149746316	31.3784825437515	
1501507224461.66	0.349397590361446	-0.590361445783133	10.0602409638554	0.137339055793991	0.0	9.88841201716738	3975.09157509157	128.0	14.6964887416151	15.7122497612933	0.763358778625954	0.778625954198473	0.122137404580153	-0.171818181818182	0.254545454545454	0.168367346938776	101.33326096149	31.3784825437515	
1501507224481.19	0.337349397590361	-0.590361445783133	10.0240963855422	0.137339055793991	0.0	9.8295524218271	3961.90476190476	128.0	14.8408281613383	15.7112160179475	0.732824427480916	0.854961832061069	0.16793893129771	-0.173636363636364	0.236363636363636	0.173469387755102	101.342149746316	31.3784825437515	
1501507224500.72	0.325301204819277	-0.602409638554217	10.0602409638554	0.156958920907419	0.0196198651134273	9.86879215205395	3988.27838827839	128.0	14.6953588360976	15.7131392613815	0.793893129770992	0.854961832061069	0.137404580152672	-0.159090909090909	0.27	0.181632653061225	101.327335108805	31.3784825437515	
1501507224520.25	0.337349397590361	-0.602409638554217	10.0963855421687	0.156958920907419	0.0	9.7608828939301	3969.23076923077	128.0	14.8443621211484	15.7323236146359	0.778625954198473	0.778625954198473	0.0458015267175573	-0.18	0.249090909090909	0.176530612244898	101.327335108805	31.3784825437515	
1501507224539.78	0.36144578313253	-0.590361445783133	10.0722891566265	0.18638871857756	0.029429797670141	9.8295524218271	3966.30036630037	128.0	14.6963444983575	15.7097255042862	0.778625954198473	0.916030534351145	0.0916030534351145	-0.171818181818182	0.252727272727273	0.173469387755102	101.318446335577	31.3784825437515	
1501507224559.31	0.36144578313253	-0.590361445783133	10.0602409638554	0.176578786020846	0.029429797670141	9.85898221949724	3970.69597069597	128.0	14.7135094460062	15.693377935097	0.809160305343512	0.580152671755725	0.198473282442748	-0.173636363636364	0.237272727272727	0.172448979591837	101.336223888992	31.3784825437515	
1501507224578.84	0.337349397590361	-0.602409638554217	10.0361445783133	0.176578786020846	0.0392397302268547	9.87860208461067	3964.83516483516	128.0	14.6963444983575	15.700133327659	0.854961832061069	0.687022900763359	0.0152671755725191	-0.175454545454545	0.257272727272727	0.177551020408163	101.327335108805	31.3784825437515	
1501507224598.37	0.36144578313253	-0.590361445783133	10.0481927710843	0.176578786020846	0.029429797670141	9.87860208461067	3989.74358974359	128.0	14.7133411622057	15.7002294898307	0.641221374045801	0.732824427480916	0.137404580152672	-0.176363636363636	0.238181818181818	0.171428571428571	101.324372183623	31.3784825437515	
1501507224617.9	0.349397590361446	-0.590361445783133	10.0481927710843	0.176578786020846	0.00980993255671367	9.89822194972409	3975.09157509157	128.0	14.6962002551	15.69496461093	0.656488549618321	0.854961832061069	0.106870229007634	-0.179090909090909	0.244545454545455	0.181632653061225	101.336223888992	31.3784825437515	
1501507224637.43	0.337349397590361	-0.602409638554217	10.0481927710843	0.196198651134273	0.0196198651134273	9.84917228694053	3953.11355311355	128.0	14.7117785269155	15.7045808281001	0.916030534351145	0.610687022900763	0.183206106870229	-0.165454545454545	0.26	0.180612244897959	101.33326096149	31.3784825437515	
1501507224656.96	0.349397590361446	-0.602409638554217	10.0481927710843	0.166768853464132	0.029429797670141	9.86879215205395	3988.27838827839	128.0	14.696825309216	15.7076099365087	0.809160305343512	0.748091603053435	0.0763358778625954	-0.182727272727273	0.238181818181818	0.169387755102041	101.327335108805	31.3784825437515	
1501507224676.49	0.337349397590361	-0.590361445783133	10.0602409638554	0.176578786020846	0.0392397302268547	9.85898221949724	3958.97435897436	128.0	14.7114419593146	15.7038355712695	0.67175572519084	0.687022900763359	0.213740458015267	-0.177272727272727	0.236363636363636	0.172448979591837	101.324372183623	31.3784825437515	
1501507224696.01	0.349397590361446	-0.590361445783133	10.0481927710843	0.206008583690987	0.0392397302268547	9.85898221949724	3967.76556776557	128.0	14.8688113533034	15.7066242742488	0.610687022900763	0.717557251908397	0.198473282442748	-0.170909090909091	0.258181818181818	0.169387755102041	101.327335108805	31.3784825437515	
1501507224715.54	0.349397590361446	-0.590361445783133	10.0481927710843	0.196198651134273	0.0196198651134273	9.84917228694053	3976.55677655678	128.0	14.7103841754259	15.6962387597051	0.793893129770992	0.763358778625954	0.122137404580153	-0.168181818181818	0.26	0.176530612244898	101.327335108805	31.3784825437515	
1501507224735.07	0.337349397590361	-0.602409638554217	10.0481927710843	0.176578786020846	0.00980993255671367	9.84917228694053	3963.36996336996	128.0	14.8675852856142	15.7140768425556	0.809160305343512	0.763358778625954	0.0610687022900763	-0.169090909090909	0.274545454545455	0.177551020408163	101.327335108805	31.3784825437515	
1501507224754.6	0.36144578313253	-0.602409638554217	10.0481927710843	0.196198651134273	-0.00980993255671367	9.87860208461067	3985.34798534799	128.0	14.7094225537089	15.7009026250326	0.625954198473282	0.610687022900763	0.0152671755725191	-0.177272727272727	0.244545454545455	0.170408163265306	101.321409259213	31.3784825437515	
1501507224774.13	0.349397590361446	-0.602409638554217	10.0602409638554	0.206008583690987	0.00980993255671367	9.81974248927039	3980.95238095238	128.0	14.866359217925	15.7167934239062	0.854961832061069	0.687022900763359	0.122137404580153	-0.17	0.247272727272727	0.18265306122449	101.33326096149	31.3784825437515	
1501507224793.66	0.337349397590361	-0.602409638554217	10.0602409638554	0.215818516247701	0.0	9.85898221949724	3954.57875457875	128.0	14.7071867832168	15.7079705446526	0.778625954198473	0.549618320610687	0.16793893129771	-0.172727272727273	0.252727272727273	0.171428571428571	101.324372183623	31.3784825437515	
1501507224813.19	0.36144578313253	-0.602409638554217	10.0481927710843	0.206008583690987	0.0	9.87860208461067	3988.27838827839	128.0	14.8645802177485	15.6979696787957	0.610687022900763	0.900763358778626	0.0763358778625954	-0.170909090909091	0.26	0.174489795918367	101.321409259213	31.3784825437515	
1501507224832.72	0.337349397590361	-0.602409638554217	10.0481927710843	0.196198651134273	0.0196198651134273	9.90803188228081	3978.02197802198	128.0	14.7085570941635	15.7107111665461	0.656488549618321	0.717557251908397	0.0152671755725191	-0.181818181818182	0.235454545454545	0.173469387755102	101.330298034761	31.3784825437515	
1501507224852.25	0.373493975903614	-0.590361445783133	10.0361445783133	0.245248313917842	0.029429797670141	9.87860208461067	3969.23076923077	128.0	14.8640032447183	15.7088840852838	0.625954198473282	0.717557251908397	-0.0152671755725191	-0.179090909090909	0.246363636363636	0.172448979591837	101.321409259213	31.3784825437515	
1501507224871.78	0.301204819277108	-0.590361445783133	10.0481927710843	0.156958920907419	0.00980993255671367	9.80012262415696	3980.95238095238	128.0	14.9563189295513	15.7306648171741	0.717557251908397	0.641221374045801	0.137404580152672	-0.17	0.266363636363636	0.188775510204082	101.327335108805	31.3784825437515	
1501507224891.31	0.349397590361446	-0.590361445783133	10.0361445783133	0.176578786020846	0.0392397302268547	9.81974248927039	3961.90476190476	128.0	14.8630416230013	15.7160481670755	0.809160305343512	0.641221374045801	0.0763358778625954	-0.18	0.235454545454545	0.173469387755102	101.321409259213	31.3784825437515	
1501507224910.84	0.349397590361446	-0.614457831325301	10.0602409638554	0.206008583690987	0.0196198651134273	9.80993255671367	3979.48717948718	128.0	14.9558140781499	15.7135719911542	0.778625954198473	0.717557251908397	0.198473282442748	-0.175454545454545	0.25	0.168367346938776	101.327335108805	31.3784825437515	
1501507224930.37	0.337349397590361	-0.590361445783133	10.0361445783133	0.225628448804414	0.0196198651134273	9.75107296137339	3982.41758241758	128.0	14.8619357580267	15.7183320186534	0.641221374045801	0.656488549618321	0.106870229007634	-0.174545454545455	0.253636363636364	0.173469387755102	101.327335108805	31.3784825437515	
1501507224949.9	0.36144578313253	-0.590361445783133	10.0602409638554	0.225628448804414	0.0	9.80993255671367	3956.04395604396	128.0	14.9551169024051	15.7210726405469	0.717557251908397	0.610687022900763	0.122137404580153	-0.18	0.232727272727273	0.174489795918367	101.327335108805	31.3784825437515	
1501507224969.43	0.349397590361446	-0.566265060240964	10.0481927710843	0.215818516247701	0.00980993255671367	9.86879215205395	3975.09157509157	128.0	14.8594115010196	15.6953492596168	0.67175572519084	0.656488549618321	0.183206106870229	-0.178181818181818	0.249090909090909	0.179591836734694	101.321409259213	31.3784825437515	
1501507224988.96	0.337349397590361	-0.578313253012048	10.0602409638554	0.196198651134273	0.0196198651134273	9.85898221949724	3970.69597069597	128.0	14.9555977132636	15.7088840852838	0.580152671755725	0.793893129770992	0.0	-0.172727272727273	0.26	0.171428571428571	101.336223888992	31.3784825437515	
1501507225008.49	0.337349397590361	-0.590361445783133	10.0722891566265	0.176578786020846	0.029429797670141	9.83936235438381	3964.83516483516	128.0	14.8567910818407	15.6998688816868	0.809160305343512	0.687022900763359	0.16793893129771	-0.179090909090909	0.232727272727273	0.170408163265306	101.321409259213	31.3784825437515	
1501507225028.02	0.337349397590361	-0.590361445783133	10.0602409638554	0.166768853464132	0.00980993255671367	9.89822194972409	3976.55677655678	128.0	14.9520637534535	15.7115285450055	0.656488549618321	0.778625954198473	0.198473282442748	-0.163636363636364	0.253636363636364	0.175510204081633	101.321409259213	31.3784825437515	
1501507225047.55	0.349397590361446	-0.614457831325301	10.0481927710843	0.147148988350705	0.00980993255671367	9.85898221949724	3973.62637362637	128.0	14.8605894876229	15.7212649648903	0.748091603053435	0.625954198473282	0.137404580152672	-0.176363636363636	0.248181818181818	0.170408163265306	101.327335108805	31.3784825437515	
1501507225067.08	0.36144578313253	-0.590361445783133	10.0602409638554	0.127529123237278	0.0490496627835684	9.83936235438381	3989.74358974359	128.0	14.9528570913701	15.712033396407	0.732824427480916	0.748091603053435	0.229007633587786	-0.181818181818182	0.24	0.176530612244898	101.327335108805	31.3784825437515	
1501507225086.61	0.349397590361446	-0.590361445783133	10.0481927710843	0.0980993255671367	0.0392397302268547	9.8295524218271	3980.95238095238	128.0	14.8615991904258	15.7237171002687	0.916030534351145	0.595419847328244	-0.0305343511450382	-0.164545454545455	0.251818181818182	0.176530612244898	101.327335108805	31.3784825437515	
1501507225106.14	0.337349397590361	-0.602409638554217	10.0481927710843	0.137339055793991	0.029429797670141	9.90803188228081	3963.36996336996	128.0	14.9515589020521	15.715567356217	0.687022900763359	0.564885496183206	0.0152671755725191	-0.18	0.238181818181818	0.164285714285714	101.330298034761	31.3784825437515	
1501507225125.67	0.337349397590361	-0.602409638554217	10.0481927710843	0.137339055793991	0.0392397302268547	9.88841201716738	3979.48717948718	128.0	14.8634262716881	15.7246787219857	0.67175572519084	0.748091603053435	0.229007633587786	-0.179090909090909	0.234545454545455	0.164285714285714	101.327335108805	31.3784825437515	
1501507225145.2	0.337349397590361	-0.590361445783133	10.0602409638554	0.147148988350705	0.0	9.86879215205395	3973.62637362637	128.0	14.9537946725442	15.7091725717989	0.610687022900763	0.809160305343512	0.229007633587786	-0.170909090909091	0.257272727272727	0.170408163265306	101.327335108805	31.3784825437515	
1501507225164.73	0.349397590361446	-0.602409638554217	10.0481927710843	0.176578786020846	0.0196198651134273	9.94727161250766	3966.30036630037	128.0	14.8665275017255	15.7251354923012	0.702290076335878	0.763358778625954	0.106870229007634	-0.172727272727273	0.259090909090909	0.178571428571429	101.327335108805	31.3784825437515	
1501507225184.26	0.349397590361446	-0.590361445783133	10.0481927710843	0.166768853464132	0.029429797670141	9.88841201716738	3982.41758241758	128.0	14.7107447835697	15.7104467205739	0.763358778625954	0.656488549618321	0.213740458015267	-0.18	0.234545454545455	0.176530612244898	101.321409259213	31.3784825437515	
1501507225203.79	0.349397590361446	-0.602409638554217	10.0602409638554	0.166768853464132	0.029429797670141	9.90803188228081	3970.69597069597	128.0	14.8666477044401	15.7138604776693	0.82442748091603	0.748091603053435	0.0458015267175573	-0.174545454545455	0.234545454545455	0.169387755102041	101.321409259213	31.3784825437515	
1501507225223.32	0.349397590361446	-0.578313253012048	10.0481927710843	0.18638871857756	0.0196198651134273	9.92765174739424	3989.74358974359	128.0	14.7095427564235	15.6989553410556	0.82442748091603	0.549618320610687	0.274809160305344	-0.18	0.237272727272727	0.166326530612245	101.321409259213	31.3784825437515	
1501507225242.85	0.337349397590361	-0.590361445783133	10.0602409638554	0.196198651134273	0.00980993255671367	9.86879215205395	3975.09157509157	128.0	14.8687632722175	15.7104467205739	0.564885496183206	0.687022900763359	0.229007633587786	-0.176363636363636	0.261818181818182	0.178571428571429	101.327335108805	31.3784825437515	
1501507225262.38	0.349397590361446	-0.602409638554217	10.0481927710843	0.215818516247701	0.0392397302268547	9.83936235438381	3963.36996336996	128.0	14.7105524592263	15.7103505584022	0.82442748091603	0.763358778625954	0.0305343511450382	-0.175454545454545	0.252727272727273	0.172448979591837	101.324372183623	31.3784825437515	
1501507225281.91	0.36144578313253	-0.602409638554217	10.0722891566265	0.176578786020846	0.029429797670141	9.8295524218271	3982.41758241758	128.0	14.867969934301	15.7090283285413	0.793893129770992	0.702290076335878	0.152671755725191	-0.181818181818182	0.234545454545455	0.175510204081633	101.327335108805	31.3784825437515	
1501507225301.44	0.349397590361446	-0.590361445783133	10.0722891566265	0.156958920907419	0.029429797670141	9.81974248927039	3967.76556776557	128.0	14.7117785269155	15.7115525855485	0.580152671755725	0.687022900763359	0.198473282442748	-0.161818181818182	0.27	0.178571428571429	101.324372183623	31.3784825437515	
1501507225320.97	0.36144578313253	-0.590361445783133	10.0602409638554	0.166768853464132	0.0490496627835684	9.81974248927039	3978.02197802198	128.0	14.8711432859671	15.7176588834515	0.687022900763359	0.763358778625954	0.152671755725191	-0.171818181818182	0.234545454545455	0.172448979591837	101.327335108805	31.3784825437515	
1501507225340.5	0.349397590361446	-0.602409638554217	10.0722891566265	0.206008583690987	0.029429797670141	9.88841201716738	3979.48717948718	128.0	14.7121872161453	15.704628909186	0.564885496183206	0.595419847328244	0.0305343511450382	-0.182727272727273	0.236363636363636	0.170408163265306	101.327335108805	31.3784825437515	
1501507225360.03	0.373493975903614	-0.602409638554217	10.0481927710843	0.245248313917842	0.0196198651134273	9.87860208461067	3972.16117216117	128.0	14.6940125656938	15.6877043669666	0.67175572519084	0.610687022900763	0.0763358778625954	-0.179090909090909	0.256363636363636	0.18265306122449	101.327335108805	31.3784825437515	
1501507225379.56	0.373493975903614	-0.578313253012048	10.0481927710843	0.235438381361128	0.0392397302268547	9.83936235438381	3978.02197802198	128.0	14.7125718648321	15.695301178531	0.900763358778626	0.641221374045801	0.152671755725191	-0.174545454545455	0.266363636363636	0.179591836734694	101.33326096149	31.3784825437515	
1501507225399.09	0.36144578313253	-0.578313253012048	10.0240963855422	0.225628448804414	0.0392397302268547	9.86879215205395	3966.30036630037	128.0	14.6930749845197	15.696575327306	0.717557251908397	0.641221374045801	0.0305343511450382	-0.180909090909091	0.235454545454545	0.176530612244898	101.327335108805	31.3784825437515	
1501507225418.62	0.36144578313253	-0.602409638554217	10.0722891566265	0.166768853464132	0.029429797670141	9.88841201716738	3957.50915750916	128.0	14.7128603513472	15.6987870572552	0.885496183206107	0.748091603053435	0.50381679389313	-0.179090909090909	0.24	0.177551020408163	101.327335108805	31.3784825437515	
1501507225438.15	0.349397590361446	-0.602409638554217	10.0602409638554	0.196198651134273	0.029429797670141	9.86879215205395	3976.55677655678	128.0	14.6949982279537	15.705590530903	0.732824427480916	0.793893129770992	-0.0763358778625954	-0.170909090909091	0.243636363636364	0.173469387755102	101.327335108805	31.3784825437515	
1501507225457.68	0.349397590361446	-0.578313253012048	10.0722891566265	0.196198651134273	0.0490496627835684	9.88841201716738	3978.02197802198	128.0	14.7127882297184	15.708499436597	0.717557251908397	0.610687022900763	0.0152671755725191	-0.180909090909091	0.237272727272727	0.169387755102041	101.327335108805	31.3784825437515	
1501507225477.21	0.36144578313253	-0.590361445783133	10.0602409638554	0.196198651134273	0.0196198651134273	9.84917228694053	3979.48717948718	128.0	14.6922095249744	15.6979215977098	0.641221374045801	0.625954198473282	0.122137404580153	-0.176363636363636	0.26	0.173469387755102	101.324372183623	31.3784825437515	
1501507225496.74	0.36144578313253	-0.590361445783133	10.0602409638554	0.206008583690987	0.0196198651134273	9.86879215205395	3982.41758241758	128.0	14.7145912704378	15.7024893008656	0.656488549618321	0.687022900763359	0.290076335877863	-0.167272727272727	0.263636363636364	0.178571428571429	101.321409259213	31.3784825437515	
1501507225516.27	0.349397590361446	-0.602409638554217	10.0602409638554	0.18638871857756	0.029429797670141	9.84917228694053	3975.09157509157	128.0	14.6917287141159	15.6986668545405	0.748091603053435	0.763358778625954	0.122137404580153	-0.18	0.238181818181818	0.174489795918367	101.330298034761	31.3784825437515	
1501507225535.8	0.36144578313253	-0.602409638554217	10.0481927710843	0.156958920907419	0.00980993255671367	9.93746167995095	3980.95238095238	128.0	14.8341208498622	15.7102784367734	0.809160305343512	0.763358778625954	0.183206106870229	-0.16	0.271818181818182	0.180612244897959	101.327335108805	31.3784825437515	
1501507225555.33	0.36144578313253	-0.590361445783133	10.0481927710843	0.206008583690987	0.0392397302268547	9.86879215205395	3975.09157509157	128.0	14.6913921465149	15.6989313005127	0.854961832061069	0.610687022900763	0.137404580152672	-0.168181818181818	0.233636363636364	0.16734693877551	101.336223888992	31.3784825437515	
1501507225574.86	0.337349397590361	-0.602409638554217	10.0481927710843	0.206008583690987	0.0196198651134273	9.83936235438381	3951.64835164835	128.0	14.8363806608972	15.7123940045509	0.809160305343512	0.67175572519084	0.152671755725191	-0.18	0.239090909090909	0.16734693877551	101.327335108805	31.3784825437515	
1501507225594.39	0.36144578313253	-0.602409638554217	10.0602409638554	0.215818516247701	0.0	9.92765174739424	3976.55677655678	128.0	14.6915123492295	15.6985466518259	0.854961832061069	0.809160305343512	0.0	-0.175454545454545	0.245454545454545	0.177551020408163	101.324372183623	31.3784825437515	
1501507225613.92	0.337349397590361	-0.578313253012048	10.0361445783133	0.166768853464132	0.0392397302268547	9.86879215205395	3976.55677655678	128.0	14.8345535796349	15.7111919774046	0.748091603053435	0.625954198473282	0.0610687022900763	-0.170909090909091	0.257272727272727	0.171428571428571	101.321409259213	31.3784825437515	
1501507225633.45	0.349397590361446	-0.602409638554217	10.0602409638554	0.147148988350705	0.029429797670141	9.85898221949724	3967.76556776557	128.0	14.6919210384593	15.7101822746017	0.793893129770992	0.641221374045801	0.0	-0.180909090909091	0.233636363636364	0.175510204081633	101.330298034761	31.3784825437515	
1501507225652.98	0.337349397590361	-0.590361445783133	10.0602409638554	0.166768853464132	0.00980993255671367	9.87860208461067	3970.69597069597	128.0	14.8343131742056	15.7034268820397	0.809160305343512	0.778625954198473	0.183206106870229	-0.180909090909091	0.242727272727273	0.179591836734694	101.327335108805	31.3784825437515	
1501507225672.51	0.349397590361446	-0.590361445783133	10.0481927710843	0.137339055793991	0.0392397302268547	9.90803188228081	3966.30036630037	128.0	14.9508617263073	15.7216496135771	0.748091603053435	0.702290076335878	0.152671755725191	-0.169090909090909	0.25	0.181632653061225	101.327335108805	31.3784825437515	
1501507225692.04	0.325301204819277	-0.590361445783133	10.0481927710843	0.18638871857756	0.0490496627835684	9.86879215205395	3972.16117216117	128.0	14.8330149848876	15.7144134101566	0.763358778625954	0.595419847328244	0.0458015267175573	-0.18	0.249090909090909	0.177551020408163	101.330298034761	31.3784825437515	
1501507225711.57	0.349397590361446	-0.590361445783133	10.0481927710843	0.215818516247701	0.0196198651134273	9.87860208461067	3980.95238095238	128.0	14.9517993074814	15.7123940045509	0.656488549618321	0.931297709923664	0.122137404580153	-0.173636363636364	0.25	0.176530612244898	101.324372183623	31.3784825437515	
1501507225731.1	0.349397590361446	-0.590361445783133	10.0481927710843	0.196198651134273	0.00980993255671367	9.85898221949724	3957.50915750916	128.0	14.8303945657088	15.7069848823927	0.717557251908397	0.732824427480916	0.0458015267175573	-0.18	0.235454545454545	0.172448979591837	101.327335108805	31.3784825437515	
1501507225750.63	0.36144578313253	-0.578313253012048	10.0602409638554	0.215818516247701	0.029429797670141	9.86879215205395	3978.02197802198	128.0	14.9498760640473	15.7035711252973	0.641221374045801	0.854961832061069	0.0	-0.18	0.235454545454545	0.172448979591837	101.321409259213	31.3784825437515	
1501507225770.16	0.349397590361446	-0.590361445783133	10.0481927710843	0.18638871857756	0.0196198651134273	9.87860208461067	3964.83516483516	128.0	14.8298416332215	15.7089562069125	0.717557251908397	0.732824427480916	0.366412213740458	-0.174545454545455	0.235454545454545	0.174489795918367	101.327335108805	31.3784825437515	
1501507225789.69	0.373493975903614	-0.590361445783133	10.0722891566265	0.225628448804414	0.0196198651134273	9.89822194972409	3989.74358974359	128.0	14.9500443478478	15.70655215262	0.82442748091603	0.854961832061069	0.16793893129771	-0.174545454545455	0.246363636363636	0.16734693877551	101.330298034761	31.3784825437515	
1501507225809.22	0.349397590361446	-0.578313253012048	10.0481927710843	0.18638871857756	0.029429797670141	9.83936235438381	3975.09157509157	128.0	14.8257787814671	15.6942433946423	0.687022900763359	0.702290076335878	0.0916030534351145	-0.168181818181818	0.257272727272727	0.181632653061225	101.33326096149	31.3784825437515	
1501507225828.75	0.337349397590361	-0.590361445783133	10.0481927710843	0.18638871857756	0.029429797670141	9.83936235438381	3956.04395604396	128.0	14.9492510099313	15.7143653290707	0.67175572519084	0.732824427480916	0.0916030534351145	-0.171818181818182	0.267272727272727	0.181632653061225	101.33326096149	31.3784825437515	
1501507225848.28	0.36144578313253	-0.578313253012048	10.0602409638554	0.166768853464132	0.0	9.84917228694053	3979.48717948718	128.0	14.8869619632119	15.7032585982393	0.732824427480916	0.809160305343512	0.229007633587786	-0.17	0.242727272727273	0.174489795918367	101.33326096149	31.3784825437515	
1501507225867.81	0.36144578313253	-0.578313253012048	10.0602409638554	0.196198651134273	0.00980993255671367	9.93746167995095	3964.83516483516	128.0	14.9467507934671	15.7009987872043	0.793893129770992	0.687022900763359	0.106870229007634	-0.175454545454545	0.235454545454545	0.178571428571429	101.327335108805	31.3784825437515	
1501507225887.34	0.325301204819277	-0.578313253012048	10.0602409638554	0.18638871857756	0.058859595340282	9.84917228694053	3963.36996336996	128.0	14.8874668146134	15.7143172479849	0.687022900763359	0.595419847328244	0.152671755725191	-0.174545454545455	0.234545454545455	0.172448979591837	101.327335108805	31.3784825437515	
1501507225906.87	0.36144578313253	-0.590361445783133	10.0361445783133	0.156958920907419	0.029429797670141	9.85898221949724	3979.48717948718	128.0	14.9455487663208	15.6950126920159	0.473282442748092	0.702290076335878	0.183206106870229	-0.171818181818182	0.242727272727273	0.168367346938776	101.315483412714	31.3784825437515	
1501507225926.4	0.36144578313253	-0.602409638554217	10.0481927710843	0.176578786020846	0.0392397302268547	9.84917228694053	3976.55677655678	128.0	14.8868417604973	15.7109515719753	0.732824427480916	0.809160305343512	0.183206106870229	-0.181818181818182	0.253636363636364	0.176530612244898	101.327335108805	31.3784825437515	
1501507225945.92	0.36144578313253	-0.578313253012048	10.0481927710843	0.196198651134273	0.0490496627835684	9.88841201716738	3986.81318681319	128.0	14.9456689690354	15.7008064628609	0.610687022900763	0.610687022900763	-0.0305343511450382	-0.175454545454545	0.250909090909091	0.171428571428571	101.327335108805	31.3784825437515	
1501507225965.46	0.349397590361446	-0.602409638554217	10.0602409638554	0.156958920907419	0.029429797670141	9.86879215205395	3954.57875457875	128.0	14.8888130850172	15.7222987082361	0.83969465648855	0.82442748091603	0.152671755725191	-0.181818181818182	0.236363636363636	0.171428571428571	101.327335108805	31.3784825437515	
1501507225984.98	0.349397590361446	-0.602409638554217	10.0361445783133	0.176578786020846	0.029429797670141	9.80993255671367	3964.83516483516	128.0	14.7281260961047	15.7026335441232	0.82442748091603	0.763358778625954	0.106870229007634	-0.177272727272727	0.235454545454545	0.173469387755102	101.327335108805	31.3784825437515	
1501507226004.51	0.325301204819277	-0.590361445783133	10.0481927710843	0.196198651134273	0.0	9.85898221949724	3979.48717948718	128.0	14.8912652203956	15.7209043567464	0.82442748091603	0.793893129770992	0.213740458015267	-0.174545454545455	0.242727272727273	0.172448979591837	101.321409259213	31.3784825437515	
1501507226024.04	0.337349397590361	-0.614457831325301	10.0602409638554	0.206008583690987	0.00980993255671367	9.86879215205395	3978.02197802198	128.0	14.729328123251	15.7041480983275	0.702290076335878	0.793893129770992	0.0305343511450382	-0.177272727272727	0.243636363636364	0.16734693877551	101.319789345724	31.3726474804235	
1501507226043.57	0.337349397590361	-0.590361445783133	10.0602409638554	0.206008583690987	0.0	9.86879215205395	3951.64835164835	128.0	14.8900872337922	15.7009507061184	0.900763358778626	0.778625954198473	0.106870229007634	-0.175454545454545	0.254545454545454	0.181632653061225	101.325715121445	31.3726474804235	
1501507226063.1	0.349397590361446	-0.590361445783133	10.0481927710843	0.156958920907419	-0.0196198651134273	9.92765174739424	3936.99633699634	128.0	14.7298329746524	15.7083311527965	0.702290076335878	0.641221374045801	0.0	-0.168181818181818	0.253636363636364	0.178571428571429	101.325715121445	31.3726474804235	
1501507226082.63	0.337349397590361	-0.590361445783133	10.0602409638554	0.235438381361128	0.0	9.87860208461067	3978.02197802198	128.0	14.8934288692588	15.7159760454467	0.809160305343512	0.82442748091603	0.274809160305344	-0.182727272727273	0.232727272727273	0.174489795918367	101.319789345724	31.3726474804235	
1501507226102.16	0.373493975903614	-0.578313253012048	10.0481927710843	0.206008583690987	0.0392397302268547	9.85898221949724	3973.62637362637	128.0	14.7310830828845	15.7086196393116	0.717557251908397	0.488549618320611	0.0916030534351145	-0.178181818181818	0.234545454545455	0.178571428571429	101.325715121445	31.3726474804235	
1501507226121.69	0.349397590361446	-0.602409638554217	10.0481927710843	0.196198651134273	0.0	9.8295524218271	3978.02197802198	128.0	14.8957848424655	15.7217457757488	0.748091603053435	0.625954198473282	0.381679389312977	-0.173636363636364	0.238181818181818	0.171428571428571	101.334603790827	31.3726474804235	
1501507226141.22	0.325301204819277	-0.602409638554217	10.0602409638554	0.18638871857756	0.0	9.92765174739424	3956.04395604396	128.0	14.7334630966341	15.7087638825691	0.763358778625954	0.610687022900763	-0.0916030534351145	-0.176363636363636	0.247272727272727	0.169387755102041	101.328678010466	31.3726474804235	
1501507226160.75	0.337349397590361	-0.602409638554217	10.0602409638554	0.166768853464132	0.00980993255671367	9.86879215205395	3989.74358974359	128.0	14.6829298754052	15.694339556814	0.67175572519084	0.717557251908397	0.0916030534351145	-0.176363636363636	0.256363636363636	0.178571428571429	101.325715121445	31.3726474804235	
1501507226180.28	0.337349397590361	-0.590361445783133	10.0481927710843	0.176578786020846	0.029429797670141	9.86879215205395	3970.69597069597	128.0	14.7335592588058	15.697560989566	0.885496183206107	0.82442748091603	0.198473282442748	-0.168181818181818	0.262727272727273	0.172448979591837	101.325715121445	31.3726474804235	
1501507226199.81	0.36144578313253	-0.590361445783133	10.0602409638554	0.18638871857756	0.029429797670141	9.87860208461067	3956.04395604396	128.0	14.6838193754935	15.7037874901836	0.763358778625954	0.564885496183206	0.0610687022900763	-0.181818181818182	0.234545454545455	0.175510204081633	101.33164090026	31.3726474804235	
1501507226219.34	0.349397590361446	-0.590361445783133	10.0481927710843	0.215818516247701	0.0490496627835684	9.87860208461067	3964.83516483516	128.0	14.7371172591588	15.6965032056773	0.67175572519084	0.610687022900763	0.0916030534351145	-0.172727272727273	0.27	0.175510204081633	101.334603790827	31.3726474804235	
1501507226238.87	0.325301204819277	-0.590361445783133	10.0481927710843	0.196198651134273	0.0196198651134273	9.83936235438381	3957.50915750916	128.0	14.6805498616556	15.6888342724841	0.900763358778626	0.809160305343512	0.0458015267175573	-0.170909090909091	0.24	0.170408163265306	101.34052957428	31.3726474804235	
1501507226258.4	0.349397590361446	-0.566265060240964	10.0722891566265	0.176578786020846	0.0392397302268547	9.85898221949724	3989.74358974359	128.0	14.7365643266715	15.6980658409674	0.854961832061069	0.748091603053435	-0.0305343511450382	-0.175454545454545	0.25	0.174489795918367	101.325715121445	31.3726474804235	
1501507226277.93	0.349397590361446	-0.578313253012048	10.0602409638554	0.166768853464132	0.0196198651134273	9.80993255671367	3979.48717948718	128.0	14.6814393617439	15.6962868407909	0.67175572519084	0.977099236641221	0.152671755725191	-0.18	0.25	0.176530612244898	101.325715121445	31.3726474804235	
1501507226297.46	0.373493975903614	-0.590361445783133	10.0361445783133	0.166768853464132	0.00980993255671367	9.80993255671367	3961.90476190476	128.0	14.7401223270244	15.7094129772281	0.83969465648855	0.732824427480916	0.0916030534351145	-0.180909090909091	0.237272727272727	0.173469387755102	101.325715121445	31.3726474804235	
1501507226316.99	0.349397590361446	-0.578313253012048	10.0481927710843	0.18638871857756	0.058859595340282	9.83936235438381	3989.74358974359	128.0	14.6836751322359	15.706239625562	0.778625954198473	0.641221374045801	0.122137404580153	-0.177272727272727	0.239090909090909	0.174489795918367	101.34052957428	31.3726474804235	
1501507226336.52	0.349397590361446	-0.590361445783133	10.0602409638554	0.206008583690987	0.0392397302268547	9.83936235438381	3980.95238095238	128.0	14.808758077076	15.7048933551582	0.82442748091603	0.854961832061069	0.16793893129771	-0.17	0.257272727272727	0.172448979591837	101.316826459023	31.3726474804235	
1501507226356.05	0.349397590361446	-0.590361445783133	10.0481927710843	0.18638871857756	0.00980993255671367	9.86879215205395	3963.36996336996	128.0	14.6820163347741	15.6995563546288	0.702290076335878	0.916030534351145	0.0458015267175573	-0.173636363636364	0.236363636363636	0.169387755102041	101.325715121445	31.3726474804235	
1501507226375.58	0.349397590361446	-0.590361445783133	10.0481927710843	0.206008583690987	0.00980993255671367	9.86879215205395	3979.48717948718	128.0	14.8074598877581	15.7106871260032	0.778625954198473	0.610687022900763	-0.0458015267175573	-0.159090909090909	0.270909090909091	0.180612244897959	101.325715121445	31.3726474804235	
1501507226395.11	0.36144578313253	-0.602409638554217	10.0481927710843	0.215818516247701	0.029429797670141	9.87860208461067	3963.36996336996	128.0	14.680429658941	15.7058549768752	0.732824427480916	0.870229007633588	-0.0305343511450382	-0.18	0.248181818181818	0.175510204081633	101.319789345724	31.3726474804235	
1501507226414.64	0.36144578313253	-0.602409638554217	10.0602409638554	0.215818516247701	0.0196198651134273	9.87860208461067	3989.74358974359	128.0	14.8049837118368	15.7053020443879	0.778625954198473	0.778625954198473	0.106870229007634	-0.179090909090909	0.236363636363636	0.172448979591837	101.325715121445	31.3726474804235	
1501507226434.17	0.36144578313253	-0.602409638554217	10.0602409638554	0.225628448804414	0.0196198651134273	9.85898221949724	3967.76556776557	128.0	14.6802132940547	15.7041721388704	0.763358778625954	0.885496183206107	0.106870229007634	-0.179090909090909	0.237272727272727	0.175510204081633	101.319789345724	31.3726474804235	
1501507226453.7	0.36144578313253	-0.590361445783133	10.0481927710843	0.196198651134273	0.029429797670141	9.89822194972409	3964.83516483516	128.0	14.8048875496651	15.7102543962305	0.732824427480916	0.625954198473282	0.0610687022900763	-0.170909090909091	0.254545454545454	0.170408163265306	101.325715121445	31.3726474804235	
1501507226473.23	0.349397590361446	-0.590361445783133	10.0602409638554	0.176578786020846	0.0196198651134273	9.89822194972409	3989.74358974359	128.0	14.9417744010815	15.718788788969	0.67175572519084	0.793893129770992	0.16793893129771	-0.172727272727273	0.238181818181818	0.170408163265306	101.322752233198	31.3726474804235	
1501507226492.76	0.337349397590361	-0.590361445783133	10.0602409638554	0.166768853464132	0.00980993255671367	9.87860208461067	3980.95238095238	128.0	14.803949968491	15.7053982065596	0.809160305343512	0.595419847328244	0.0458015267175573	-0.179090909090909	0.242727272727273	0.174489795918367	101.316826459023	31.3726474804235	
1501507226512.29	0.349397590361446	-0.578313253012048	10.0361445783133	0.18638871857756	0.0392397302268547	9.86879215205395	3964.83516483516	128.0	14.9396347927612	15.6987870572552	0.763358778625954	0.702290076335878	0.229007633587786	-0.182727272727273	0.248181818181818	0.174489795918367	101.319789345724	31.3726474804235	
1501507226531.82	0.36144578313253	-0.590361445783133	10.0481927710843	0.225628448804414	0.029429797670141	9.85898221949724	3980.95238095238	128.0	14.8007525762819	15.7061915444761	0.595419847328244	0.732824427480916	0.244274809160305	-0.179090909090909	0.257272727272727	0.181632653061225	101.316826459023	31.3726474804235	
1501507226551.35	0.36144578313253	-0.602409638554217	10.0481927710843	0.206008583690987	0.00980993255671367	9.87860208461067	3979.48717948718	128.0	14.9414137929377	15.7052539633021	0.748091603053435	1.02290076335878	0.229007633587786	-0.176363636363636	0.234545454545455	0.170408163265306	101.325715121445	31.3726474804235	
1501507226570.88	0.36144578313253	-0.590361445783133	10.0481927710843	0.18638871857756	0.058859595340282	9.85898221949724	3979.48717948718	128.0	14.80007944108	15.7071050851073	0.610687022900763	0.809160305343512	0.259541984732824	-0.177272727272727	0.253636363636364	0.174489795918367	101.325715121445	31.3726474804235	
1501507226590.41	0.337349397590361	-0.590361445783133	10.0602409638554	0.147148988350705	0.00980993255671367	9.84917228694053	3980.95238095238	128.0	14.9413897523947	15.7104707611168	0.83969465648855	0.656488549618321	0.137404580152672	-0.172727272727273	0.235454545454545	0.170408163265306	101.325715121445	31.3726474804235	
1501507226609.94	0.349397590361446	-0.602409638554217	10.0481927710843	0.147148988350705	0.0392397302268547	9.85898221949724	3951.64835164835	128.0	14.7969060894139	15.6895554887719	0.748091603053435	0.793893129770992	0.0916030534351145	-0.177272727272727	0.243636363636364	0.179591836734694	101.322752233198	31.3726474804235	
1501507226629.47	0.36144578313253	-0.614457831325301	10.0361445783133	0.156958920907419	-0.0196198651134273	9.90803188228081	3929.67032967033	128.0	14.940981063165	15.7162885725047	0.977099236641221	0.748091603053435	0.198473282442748	-0.165454545454545	0.271818181818182	0.180612244897959	101.328678010466	31.3726474804235	
1501507226649.0	0.349397590361446	-0.590361445783133	10.0602409638554	0.176578786020846	0.0196198651134273	9.84917228694053	3956.04395604396	128.0	14.9111467493947	15.7060232606757	0.83969465648855	0.931297709923664	0.198473282442748	-0.167272727272727	0.260909090909091	0.173469387755102	101.34052957428	31.3726474804235	
1501507226668.53	0.337349397590361	-0.590361445783133	10.0481927710843	0.147148988350705	0.0196198651134273	9.83936235438381	3950.18315018315	128.0	14.9363412383804	15.6947722865866	0.82442748091603	0.870229007633588	-0.0458015267175573	-0.174545454545455	0.246363636363636	0.181632653061225	101.325715121445	31.3726474804235	
1501507226688.06	0.36144578313253	-0.590361445783133	10.0602409638554	0.156958920907419	0.029429797670141	9.86879215205395	3980.95238095238	128.0	14.9073723841555	15.7011430304618	0.946564885496183	0.748091603053435	0.290076335877863	-0.174545454545455	0.251818181818182	0.168367346938776	101.325715121445	31.3726474804235	
1501507226707.59	0.349397590361446	-0.602409638554217	10.0602409638554	0.176578786020846	0.058859595340282	9.84917228694053	3970.69597069597	128.0	14.9367018465243	15.7064319499054	0.67175572519084	0.809160305343512	0.152671755725191	-0.183636363636364	0.236363636363636	0.176530612244898	101.325715121445	31.3726474804235	
1501507226727.12	0.36144578313253	-0.578313253012048	10.0602409638554	0.176578786020846	0.029429797670141	9.89822194972409	3989.74358974359	128.0	14.9097283573622	15.7197744512289	0.625954198473282	0.748091603053435	-0.0152671755725191	-0.18	0.244545454545455	0.179591836734694	101.319789345724	31.3726474804235	
1501507226746.65	0.337349397590361	-0.578313253012048	10.0361445783133	0.18638871857756	0.0392397302268547	9.84917228694053	3967.76556776557	128.0	14.9331198056284	15.6914787322059	0.900763358778626	0.717557251908397	0.0152671755725191	-0.166363636363636	0.258181818181818	0.188775510204082	101.325715121445	31.3726474804235	
1501507226766.18	0.349397590361446	-0.602409638554217	10.0602409638554	0.196198651134273	0.0490496627835684	9.86879215205395	3956.04395604396	128.0	14.9105938169075	15.715254829159	0.595419847328244	0.625954198473282	-0.0763358778625954	-0.182727272727273	0.235454545454545	0.170408163265306	101.325715121445	31.3726474804235	
1501507226785.71	0.36144578313253	-0.578313253012048	10.0481927710843	0.166768853464132	0.0	9.83936235438381	3989.74358974359	128.0	14.9350911301483	15.7055184092742	0.82442748091603	0.580152671755725	0.0152671755725191	-0.177272727272727	0.258181818181818	0.176530612244898	101.325715121445	31.3726474804235	
1501507226805.24	0.36144578313253	-0.590361445783133	10.0602409638554	0.215818516247701	0.0196198651134273	9.87860208461067	3978.02197802198	128.0	14.9128536279424	15.7193898025421	0.625954198473282	0.717557251908397	0.0610687022900763	-0.17	0.260909090909091	0.175510204081633	101.319789345724	31.3726474804235	
1501507226824.77	0.36144578313253	-0.578313253012048	10.0481927710843	0.176578786020846	0.0196198651134273	9.88841201716738	3961.90476190476	128.0	14.752479166088	15.6990515032273	0.900763358778626	0.580152671755725	0.0152671755725191	-0.180909090909091	0.235454545454545	0.173469387755102	101.328678010466	31.3726474804235	
1501507226844.3	0.349397590361446	-0.602409638554217	10.0602409638554	0.18638871857756	0.0196198651134273	9.83936235438381	3978.02197802198	128.0	14.9124930197986	15.6999890844014	0.534351145038168	0.870229007633588	0.290076335877863	-0.180909090909091	0.244545454545455	0.177551020408163	101.325715121445	31.3726474804235	
1501507226863.83	0.349397590361446	-0.602409638554217	10.0602409638554	0.156958920907419	0.0	9.85898221949724	3969.23076923077	128.0	14.7564698962136	15.7152067480731	0.900763358778626	0.687022900763359	0.122137404580153	-0.170909090909091	0.237272727272727	0.168367346938776	101.33164090026	31.3726474804235	
1501507226883.36	0.337349397590361	-0.602409638554217	10.0481927710843	0.147148988350705	0.0196198651134273	9.90803188228081	3989.74358974359	128.0	14.9152096011491	15.7155192751311	0.763358778625954	0.687022900763359	0.0152671755725191	-0.182727272727273	0.234545454545455	0.16530612244898	101.313863573095	31.3726474804235	
1501507226902.89	0.349397590361446	-0.578313253012048	10.0602409638554	0.166768853464132	0.0196198651134273	9.87860208461067	3966.30036630037	128.0	14.7573593963018	15.7143893696137	0.763358778625954	0.778625954198473	0.0152671755725191	-0.175454545454545	0.247272727272727	0.177551020408163	101.325715121445	31.3726474804235	
1501507226922.42	0.349397590361446	-0.614457831325301	10.0481927710843	0.18638871857756	0.0392397302268547	9.84917228694053	3961.90476190476	128.0	14.9136710064019	15.7153269507877	0.778625954198473	0.82442748091603	-0.0458015267175573	-0.174545454545455	0.251818181818182	0.172448979591837	101.325715121445	31.3726474804235	
1501507226941.95	0.349397590361446	-0.602409638554217	10.0602409638554	0.166768853464132	-0.00980993255671367	9.87860208461067	3976.55677655678	128.0	14.7571911125014	15.709773585372	0.83969465648855	0.732824427480916	0.213740458015267	-0.179090909090909	0.258181818181818	0.18469387755102	101.325715121445	31.3726474804235	
1501507226961.48	0.325301204819277	-0.590361445783133	10.0602409638554	0.166768853464132	0.029429797670141	9.89822194972409	3975.09157509157	128.0	14.6747801313536	15.6989072599698	0.870229007633588	0.67175572519084	0.0	-0.179090909090909	0.242727272727273	0.174489795918367	101.319789345724	31.3726474804235	
1501507226981.01	0.337349397590361	-0.590361445783133	10.0602409638554	0.196198651134273	0.0196198651134273	9.86879215205395	3967.76556776557	128.0	14.7583450585618	15.7010709088331	0.702290076335878	0.656488549618321	0.213740458015267	-0.17	0.239090909090909	0.172448979591837	101.325715121445	31.3726474804235	
