"sep=	"
Shimmer_001_TimestampSync_Unix_CAL	Shimmer_001_Accel_LN_X_CAL	Shimmer_001_Accel_LN_Y_CAL	Shimmer_001_Accel_LN_Z_CAL	Shimmer_001_Accel_WR_X_CAL	Shimmer_001_Accel_WR_Y_CAL	Shimmer_001_Accel_WR_Z_CAL	Shimmer_001_Battery_CAL	Shimmer_001_ECG_EMG_Status1_CAL	Shimmer_001_EMG_CH1_24BIT_CAL	Shimmer_001_EMG_CH2_24BIT_CAL	Shimmer_001_Gyro_X_CAL	Shimmer_001_Gyro_Y_CAL	Shimmer_001_Gyro_Z_CAL	Shimmer_001_Mag_X_CAL	Shimmer_001_Mag_Y_CAL	Shimmer_001_Mag_Z_CAL	Shimmer_001_Pressure_BMP180_CAL	Shimmer_001_Temperature_BMP180_CAL	
ms	m/(s^2)	m/(s^2)	m/(s^2)	m/(s^2)	m/(s^2)	m/(s^2)	mV	no_units	mV	mV	deg/s	deg/s	deg/s	local_flux	local_flux	local_flux	kPa	Degrees Celsius	
1501507387251.57	0.301204819277108	-0.590361445783133	10.0481927710843	0.147148988350705	0.0490496627835684	9.88841201716738	3967.76556776557	128.0	14.6457151149569	15.2947376523103	0.870229007633588	0.67175572519084	0.183206106870229	-0.258181818181818	0.0981818181818182	-0.0836734693877551	101.334731353348	32.0891612441978	
1501507387271.1	0.301204819277108	-0.602409638554217	10.0602409638554	0.147148988350705	-0.0196198651134273	9.83936235438381	3979.48717948718	128.0	14.5763821891605	15.2917325844446	0.931297709923664	0.656488549618321	-0.106870229007634	-0.246363636363636	0.109090909090909	-0.076530612244898	101.322861863633	32.0891612441978	
1501507387290.63	0.313253012048193	-0.614457831325301	10.0602409638554	0.147148988350705	0.0	9.83936235438381	3961.90476190476	128.0	14.6873533353035	15.2795921102673	0.793893129770992	0.610687022900763	0.152671755725191	-0.248181818181818	0.109090909090909	-0.0918367346938776	101.328796606939	32.0891612441978	
1501507387310.16	0.301204819277108	-0.602409638554217	10.0481927710843	0.176578786020846	-0.00980993255671367	9.89822194972409	3973.62637362637	128.0	14.5771274459911	15.2948578550249	0.870229007633588	0.793893129770992	-0.0152671755725191	-0.256363636363636	0.115454545454545	-0.0785714285714286	101.331763979756	32.0891612441978	
1501507387329.69	0.337349397590361	-0.602409638554217	10.0602409638554	0.147148988350705	0.0196198651134273	9.89822194972409	3973.62637362637	128.0	14.6884351597351	15.2934394629923	0.641221374045801	0.702290076335878	0.198473282442748	-0.251818181818182	0.123636363636364	-0.0785714285714286	101.328796606939	32.0891612441978	
1501507387349.22	0.313253012048193	-0.602409638554217	10.0602409638554	0.166768853464132	0.0196198651134273	9.88841201716738	3958.97435897436	128.0	14.5781611893369	15.2975503958325	0.83969465648855	0.625954198473282	0.244274809160305	-0.257272727272727	0.107272727272727	-0.0846938775510204	101.328796606939	32.0891612441978	
1501507387368.75	0.313253012048193	-0.614457831325301	10.0481927710843	0.196198651134273	0.029429797670141	9.88841201716738	3970.69597069597	128.0	14.6877860650761	15.3116381539867	0.931297709923664	0.67175572519084	0.0916030534351145	-0.242727272727273	0.130909090909091	-0.0744897959183674	101.328796606939	32.0891612441978	
1501507387388.28	0.313253012048193	-0.614457831325301	10.0602409638554	0.156958920907419	0.0392397302268547	9.86879215205395	3966.30036630037	128.0	14.5808537301446	15.3129363433047	0.763358778625954	0.641221374045801	0.274809160305344	-0.250909090909091	0.0981818181818182	-0.0887755102040816	101.322861863633	32.0891612441978	
1501507387407.81	0.313253012048193	-0.626506024096386	10.0602409638554	0.176578786020846	-0.00980993255671367	9.91784181483752	3967.76556776557	128.0	14.689444862538	15.3217832631012	0.763358778625954	0.580152671755725	0.229007633587786	-0.252727272727273	0.107272727272727	-0.0918367346938776	101.328796606939	32.0891612441978	
1501507387427.34	0.313253012048193	-0.614457831325301	10.0481927710843	0.147148988350705	0.0196198651134273	9.87860208461067	3945.78754578755	128.0	14.5853252711286	15.3238267092498	0.610687022900763	0.763358778625954	0.137404580152672	-0.256363636363636	0.111818181818182	-0.0826530612244898	101.328796606939	32.0891612441978	
1501507387446.87	0.313253012048193	-0.602409638554217	10.0602409638554	0.127529123237278	0.00980993255671367	9.85898221949724	3972.16117216117	128.0	14.6898295112248	15.3105563295551	0.778625954198473	0.717557251908397	-0.0152671755725191	-0.25	0.110909090909091	-0.0887755102040816	101.328796606939	32.0891612441978	
1501507387466.4	0.313253012048193	-0.590361445783133	10.0602409638554	0.176578786020846	-0.0196198651134273	9.88841201716738	3978.02197802198	128.0	14.8308994171102	15.3248844931385	0.763358778625954	0.748091603053435	-0.0152671755725191	-0.256363636363636	0.118181818181818	-0.076530612244898	101.328796606939	32.0891612441978	
1501507387485.93	0.289156626506024	-0.602409638554217	10.0722891566265	0.147148988350705	0.029429797670141	9.81974248927039	3978.02197802198	128.0	14.6919210384593	15.318633951978	0.687022900763359	0.854961832061069	0.106870229007634	-0.255454545454545	0.0981818181818182	-0.0908163265306122	101.325829234899	32.0891612441978	
1501507387505.46	0.313253012048193	-0.590361445783133	10.0602409638554	0.117719190680564	0.0490496627835684	9.83936235438381	3960.43956043956	128.0	14.8343131742056	15.3329380750185	0.67175572519084	0.763358778625954	-0.0305343511450382	-0.25	0.104545454545455	-0.0836734693877551	101.322861863633	32.0891612441978	
1501507387524.99	0.325301204819277	-0.602409638554217	10.0602409638554	0.166768853464132	0.0196198651134273	9.92765174739424	3935.53113553113	128.0	14.6925941736612	15.3067819643158	0.656488549618321	0.793893129770992	0.0305343511450382	-0.246363636363636	0.122727272727273	-0.0724489795918367	101.322861863633	32.0891612441978	
1501507387544.52	0.325301204819277	-0.614457831325301	10.0481927710843	0.166768853464132	0.00980993255671367	9.89822194972409	3963.36996336996	128.0	14.8369576339274	15.3225766010177	0.625954198473282	0.67175572519084	0.16793893129771	-0.257272727272727	0.113636363636364	-0.0816326530612245	101.328796606939	32.0891612441978	
1501507387564.05	0.313253012048193	-0.602409638554217	10.0481927710843	0.137339055793991	0.029429797670141	9.89822194972409	3957.50915750916	128.0	14.6931230656055	15.3372413322021	0.748091603053435	0.641221374045801	0.0	-0.239090909090909	0.117272727272727	-0.0826530612244898	101.325829234899	32.0891612441978	
1501507387583.58	0.313253012048193	-0.602409638554217	10.0602409638554	0.127529123237278	0.00980993255671367	9.86879215205395	3975.09157509157	128.0	14.8345535796349	15.324740249881	0.793893129770992	0.793893129770992	0.137404580152672	-0.255454545454545	0.0963636363636364	-0.089795918367347	101.334731353348	32.0891612441978	
1501507387603.11	0.301204819277108	-0.602409638554217	10.0361445783133	0.137339055793991	0.00980993255671367	9.80993255671367	3967.76556776557	128.0	14.6927143763758	15.3395011432371	0.717557251908397	0.580152671755725	0.183206106870229	-0.248181818181818	0.122727272727273	-0.089795918367347	101.322861863633	32.0891612441978	
1501507387622.64	0.325301204819277	-0.614457831325301	10.0722891566265	0.10790925812385	0.029429797670141	9.85898221949724	3986.81318681319	128.0	14.8361642960108	15.3355344536544	0.854961832061069	0.717557251908397	0.16793893129771	-0.250909090909091	0.1	-0.089795918367347	101.322861863633	32.0891612441978	
1501507387642.17	0.301204819277108	-0.602409638554217	10.0602409638554	0.137339055793991	0.029429797670141	9.86879215205395	3972.16117216117	128.0	14.8249373624648	15.3524830364167	0.656488549618321	0.687022900763359	0.122137404580153	-0.256363636363636	0.105454545454545	-0.0846938775510204	101.325829234899	32.0891612441978	
1501507387661.7	0.313253012048193	-0.614457831325301	10.0602409638554	0.176578786020846	0.0196198651134273	9.85898221949724	3954.57875457875	128.0	14.8363566203543	15.3492616036647	0.809160305343512	0.82442748091603	0.152671755725191	-0.258181818181818	0.115454545454545	-0.0806122448979592	101.322861863633	32.0891612441978	
1501507387681.23	0.325301204819277	-0.590361445783133	10.0602409638554	0.147148988350705	-0.00980993255671367	9.83936235438381	3979.48717948718	128.0	14.8264278761261	15.3362075888563	0.870229007633588	0.564885496183206	0.0916030534351145	-0.250909090909091	0.0981818181818182	-0.0887755102040816	101.319637500209	32.07752978016	
1501507387700.76	0.313253012048193	-0.602409638554217	10.0602409638554	0.176578786020846	0.00980993255671367	9.83936235438381	3967.76556776557	128.0	14.8377750123868	15.3509204011266	0.67175572519084	0.717557251908397	0.106870229007634	-0.243636363636364	0.139090909090909	-0.0755102040816327	101.328539395507	32.07752978016	
1501507387720.29	0.301204819277108	-0.590361445783133	10.0602409638554	0.137339055793991	0.0196198651134273	9.87860208461067	3966.30036630037	128.0	14.8304426467946	15.3474345224024	0.717557251908397	0.625954198473282	0.0	-0.251818181818182	0.118181818181818	-0.089795918367347	101.319637500209	32.07752978016	
1501507387739.82	0.301204819277108	-0.602409638554217	10.0843373493976	0.127529123237278	0.0196198651134273	9.93746167995095	3979.48717948718	128.0	14.8387606746468	15.3402704406107	0.564885496183206	0.702290076335878	0.106870229007634	-0.251818181818182	0.0981818181818182	-0.0887755102040816	101.322604797866	32.07752978016	
1501507387759.35	0.289156626506024	-0.614457831325301	10.0722891566265	0.127529123237278	0.0	9.87860208461067	3975.09157509157	128.0	14.8311638630824	15.3265673311433	0.870229007633588	0.702290076335878	0.198473282442748	-0.255454545454545	0.107272727272727	-0.0806122448979592	101.325572096298	32.07752978016	
1501507387778.88	0.325301204819277	-0.602409638554217	9.97590361445783	0.156958920907419	-0.0196198651134273	9.86879215205395	3986.81318681319	128.0	14.6812710779434	15.353348495962	0.809160305343512	0.717557251908397	0.0763358778625954	-0.257272727272727	0.112727272727273	-0.0826530612244898	101.33150669549	32.07752978016	
1501507387798.41	0.301204819277108	-0.626506024096386	10.0602409638554	0.156958920907419	0.0196198651134273	9.87860208461067	3972.16117216117	128.0	14.8340006471476	15.3675324162879	0.870229007633588	0.763358778625954	0.0152671755725191	-0.260909090909091	0.0990909090909091	-0.0928571428571429	101.33150669549	32.07752978016	
1501507387817.94	0.301204819277108	-0.602409638554217	10.0481927710843	0.166768853464132	0.0392397302268547	9.84917228694053	3954.57875457875	128.0	14.6822326996604	15.3462084547132	0.793893129770992	0.793893129770992	0.0916030534351145	-0.252727272727273	0.0981818181818182	-0.089795918367347	101.319637500209	32.07752978016	
1501507387837.47	0.301204819277108	-0.614457831325301	10.0722891566265	0.147148988350705	-0.00980993255671367	9.85898221949724	3978.02197802198	128.0	14.8359479311245	15.3577238747744	0.854961832061069	0.732824427480916	0.183206106870229	-0.245454545454545	0.125454545454545	-0.0816326530612245	101.325572096298	32.07752978016	
1501507387857.0	0.325301204819277	-0.614457831325301	10.0722891566265	0.137339055793991	0.0	9.88841201716738	3956.04395604396	128.0	14.6848771593822	15.3595509560368	0.83969465648855	0.717557251908397	0.0458015267175573	-0.246363636363636	0.120909090909091	-0.0806122448979592	101.325572096298	32.07752978016	
1501507387876.53	0.325301204819277	-0.614457831325301	10.0722891566265	0.137339055793991	0.0196198651134273	9.80993255671367	3966.30036630037	128.0	14.8379673367302	15.3616905643571	0.687022900763359	0.793893129770992	0.122137404580153	-0.258181818181818	0.109090909090909	-0.0836734693877551	101.325572096298	32.07752978016	
1501507387896.06	0.313253012048193	-0.614457831325301	10.0602409638554	0.10790925812385	0.0	9.8295524218271	3976.55677655678	128.0	14.6877139434473	15.3618107670717	0.717557251908397	0.702290076335878	0.229007633587786	-0.254545454545454	0.113636363636364	-0.0816326530612245	101.325572096298	32.07752978016	
1501507387915.59	0.313253012048193	-0.614457831325301	10.0602409638554	0.166768853464132	0.0196198651134273	9.85898221949724	3976.55677655678	128.0	14.841573418169	15.3825337150733	0.793893129770992	0.717557251908397	0.183206106870229	-0.258181818181818	0.0981818181818182	-0.0938775510204082	101.325572096298	32.07752978016	
1501507387935.12	0.337349397590361	-0.602409638554217	10.0120481927711	0.18638871857756	0.029429797670141	9.8295524218271	3979.48717948718	128.0	14.6883870786493	15.3692633353786	0.702290076335878	0.595419847328244	0.137404580152672	-0.256363636363636	0.1	-0.089795918367347	101.325572096298	32.07752978016	
1501507387954.65	0.36144578313253	-0.55421686746988	10.144578313253	0.156958920907419	0.255058246474555	9.98651134273452	3978.02197802198	128.0	14.5992928265682	15.3677728217172	1.02290076335878	0.900763358778626	0.137404580152672	-0.250909090909091	0.115454545454545	-0.0887755102040816	101.322604797866	32.07752978016	
1501507387974.18	0.289156626506024	-0.590361445783133	10.1325301204819	0.0980993255671367	0.0784794604537094	9.93746167995095	3960.43956043956	128.0	14.6896131463384	15.3671477676011	0.687022900763359	0.687022900763359	0.137404580152672	-0.250909090909091	0.0981818181818182	-0.089795918367347	101.33150669549	32.07752978016	
1501507387993.71	0.27710843373494	-0.542168674698795	10.2530120481928	0.137339055793991	0.029429797670141	9.83936235438381	3973.62637362637	128.0	14.5996053536263	15.3536369824771	0.717557251908397	0.748091603053435	0.122137404580153	-0.252727272727273	0.104545454545455	-0.0795918367346939	101.316670203327	32.07752978016	
1501507388013.24	0.301204819277108	-0.614457831325301	9.93975903614458	0.10790925812385	0.029429797670141	9.7608828939301	3967.76556776557	128.0	14.6911757816286	15.3809951203261	0.793893129770992	0.763358778625954	0.137404580152672	-0.257272727272727	0.11	-0.0826530612244898	101.328539395507	32.07752978016	
1501507388032.77	0.289156626506024	-0.578313253012048	10.0722891566265	0.127529123237278	0.0196198651134273	9.88841201716738	3966.30036630037	128.0	14.6018411241183	15.3797930931798	0.83969465648855	0.534351145038168	0.16793893129771	-0.256363636363636	0.0981818181818182	-0.0908163265306122	101.325572096298	32.07752978016	
1501507388052.3	0.325301204819277	-0.602409638554217	10.0481927710843	0.137339055793991	0.0196198651134273	9.90803188228081	3970.69597069597	128.0	14.694589538724	15.3946261081647	0.748091603053435	0.656488549618321	0.0305343511450382	-0.245454545454545	0.123636363636364	-0.0846938775510204	101.325572096298	32.07752978016	
1501507388071.83	0.301204819277108	-0.614457831325301	10.0722891566265	0.156958920907419	0.0392397302268547	9.87860208461067	3978.02197802198	128.0	14.6054231650142	15.3812114852124	0.702290076335878	0.610687022900763	0.16793893129771	-0.250909090909091	0.114545454545455	-0.0938775510204082	101.328539395507	32.07752978016	
1501507388091.36	0.289156626506024	-0.602409638554217	10.0722891566265	0.127529123237278	0.00980993255671367	9.87860208461067	3978.02197802198	128.0	14.6992293635085	15.3970301624572	0.641221374045801	0.900763358778626	0.152671755725191	-0.250909090909091	0.114545454545455	-0.0938775510204082	101.325572096298	32.07752978016	
1501507388110.89	0.313253012048193	-0.602409638554217	10.0602409638554	0.147148988350705	-0.00980993255671367	9.83936235438381	3978.02197802198	128.0	14.6058558947868	15.3812114852124	0.702290076335878	0.717557251908397	0.0610687022900763	-0.259090909090909	0.106363636363636	-0.0826530612244898	101.325572096298	32.07752978016	
1501507388130.42	0.325301204819277	-0.626506024096386	10.0481927710843	0.127529123237278	0.029429797670141	9.8295524218271	3947.25274725275	128.0	14.6990610797081	15.3927269052736	0.778625954198473	0.763358778625954	0.274809160305344	-0.245454545454545	0.102727272727273	-0.0877551020408163	101.325572096298	32.07752978016	
1501507388149.95	0.313253012048193	-0.602409638554217	10.0843373493976	0.176578786020846	0.0	9.85898221949724	3976.55677655678	128.0	14.6098947059983	15.381668255528	0.717557251908397	0.610687022900763	0.0305343511450382	-0.241818181818182	0.121818181818182	-0.086734693877551	101.325572096298	32.07752978016	
1501507388169.48	0.301204819277108	-0.590361445783133	10.0602409638554	0.166768853464132	0.0196198651134273	9.89822194972409	3950.18315018315	128.0	14.6960560118424	15.3824375529016	0.83969465648855	0.67175572519084	0.0152671755725191	-0.251818181818182	0.109090909090909	-0.0826530612244898	101.319637500209	32.07752978016	
1501507388189.01	0.301204819277108	-0.590361445783133	10.0722891566265	0.147148988350705	0.0	9.88841201716738	3966.30036630037	128.0	14.6061924623878	15.384577161222	0.717557251908397	0.763358778625954	0.122137404580153	-0.248181818181818	0.118181818181818	-0.0918367346938776	101.319637500209	32.07752978016	
1501507388208.54	0.325301204819277	-0.590361445783133	10.0722891566265	0.147148988350705	-0.00980993255671367	9.86879215205395	3976.55677655678	128.0	14.6936759980928	15.3866686884565	0.748091603053435	0.809160305343512	0.106870229007634	-0.252727272727273	0.122727272727273	-0.0836734693877551	101.319637500209	32.07752978016	
1501507388228.07	0.301204819277108	-0.602409638554217	10.0722891566265	0.137339055793991	0.029429797670141	9.84917228694053	3953.11355311355	128.0	14.6073223679053	15.3772447956298	0.610687022900763	0.656488549618321	0.16793893129771	-0.233636363636364	0.130909090909091	-0.0795918367346939	101.325572096298	32.07752978016	
1501507388247.6	0.325301204819277	-0.602409638554217	10.0722891566265	0.147148988350705	0.0392397302268547	9.81974248927039	3986.81318681319	128.0	14.6921133628027	15.3901064860948	0.809160305343512	0.625954198473282	0.16793893129771	-0.246363636363636	0.105454545454545	-0.089795918367347	101.325572096298	32.07752978016	
1501507388267.13	0.301204819277108	-0.602409638554217	10.0602409638554	0.156958920907419	0.029429797670141	9.86879215205395	3979.48717948718	128.0	14.8456843510093	15.4091225555487	0.809160305343512	0.717557251908397	0.122137404580153	-0.253636363636364	0.123636363636364	-0.0887755102040816	101.322604797866	32.07752978016	
1501507388286.66	0.313253012048193	-0.614457831325301	10.0481927710843	0.156958920907419	0.00980993255671367	9.8295524218271	3961.90476190476	128.0	14.6921133628027	15.4019584737569	0.732824427480916	0.854961832061069	0.122137404580153	-0.248181818181818	0.11	-0.0836734693877551	101.319637500209	32.07752978016	
1501507388306.19	0.301204819277108	-0.590361445783133	10.0602409638554	0.147148988350705	0.0392397302268547	9.85898221949724	3983.88278388278	128.0	14.8449150536356	15.3984245139469	0.732824427480916	0.625954198473282	0.213740458015267	-0.247272727272727	0.118181818181818	-0.086734693877551	101.319637500209	32.07752978016	
1501507388325.72	0.289156626506024	-0.602409638554217	10.0602409638554	0.10790925812385	0.029429797670141	9.8295524218271	3969.23076923077	128.0	14.6943731738376	15.4085455825184	0.732824427480916	0.625954198473282	0.259541984732824	-0.257272727272727	0.0963636363636364	-0.089795918367347	101.322604797866	32.07752978016	
1501507388345.25	0.313253012048193	-0.602409638554217	10.0602409638554	0.137339055793991	0.0196198651134273	9.84917228694053	3970.69597069597	128.0	14.8449871752644	15.3961887434549	0.870229007633588	0.778625954198473	0.183206106870229	-0.260909090909091	0.101818181818182	-0.0816326530612245	101.328539395507	32.07752978016	
1501507388364.78	0.301204819277108	-0.614457831325301	10.0722891566265	0.156958920907419	0.0392397302268547	9.84917228694053	3944.32234432234	128.0	14.6941808494942	15.4111419611544	0.83969465648855	0.50381679389313	0.213740458015267	-0.247272727272727	0.105454545454545	-0.089795918367347	101.319637500209	32.07752978016	
1501507388384.31	0.313253012048193	-0.614457831325301	10.0481927710843	0.166768853464132	0.0196198651134273	9.84917228694053	3970.69597069597	128.0	14.8458526348097	15.4044346496782	0.793893129770992	0.732824427480916	0.244274809160305	-0.255454545454545	0.100909090909091	-0.089795918367347	101.325572096298	32.07752978016	
1501507388403.84	0.325301204819277	-0.626506024096386	10.0602409638554	0.156958920907419	0.0	9.83936235438381	3975.09157509157	128.0	14.6954790388122	15.4028720143881	0.82442748091603	0.809160305343512	0.244274809160305	-0.252727272727273	0.114545454545455	-0.0846938775510204	101.322604797866	32.07752978016	
1501507388423.37	0.301204819277108	-0.614457831325301	10.0722891566265	0.147148988350705	0.0196198651134273	9.85898221949724	3963.36996336996	128.0	14.8460209186102	15.4060934471401	0.717557251908397	0.763358778625954	0.0458015267175573	-0.25	0.128181818181818	-0.0826530612244898	101.322604797866	32.07752978016	
1501507388442.9	0.289156626506024	-0.602409638554217	10.0722891566265	0.137339055793991	-0.00980993255671367	9.88841201716738	3948.71794871795	128.0	14.8585941225601	15.3973426895153	0.778625954198473	0.793893129770992	0.198473282442748	-0.255454545454545	0.1	-0.0836734693877551	101.33150669549	32.07752978016	
1501507388462.43	0.301204819277108	-0.602409638554217	10.0602409638554	0.147148988350705	0.0196198651134273	9.87860208461067	3982.41758241758	128.0	14.8434004994314	15.3810912824978	0.564885496183206	0.763358778625954	0.0610687022900763	-0.257272727272727	0.103636363636364	-0.0836734693877551	101.325572096298	32.07752978016	
1501507388481.96	0.313253012048193	-0.590361445783133	10.0602409638554	0.166768853464132	0.029429797670141	9.8295524218271	3969.23076923077	128.0	14.8590028117898	15.4207581783245	0.717557251908397	0.809160305343512	0.106870229007634	-0.249090909090909	0.107272727272727	-0.0938775510204082	101.325572096298	32.07752978016	
1501507388501.49	0.313253012048193	-0.602409638554217	10.0602409638554	0.137339055793991	0.029429797670141	9.83936235438381	3972.16117216117	128.0	14.8450592968932	15.4023671629867	0.870229007633588	0.67175572519084	0.0763358778625954	-0.258181818181818	0.0990909090909091	-0.0918367346938776	101.322604797866	32.07752978016	
1501507388521.02	0.325301204819277	-0.614457831325301	10.0602409638554	0.156958920907419	0.0196198651134273	9.87860208461067	3979.48717948718	128.0	14.8622002039989	15.4274414492577	0.778625954198473	0.67175572519084	0.198473282442748	-0.25	0.112727272727273	-0.086734693877551	101.325572096298	32.07752978016	
1501507388540.55	0.301204819277108	-0.626506024096386	10.0602409638554	0.137339055793991	-0.0196198651134273	9.86879215205395	3941.39194139194	128.0	14.8440495940903	15.409338920435	0.687022900763359	0.82442748091603	0.16793893129771	-0.25	0.119090909090909	-0.0857142857142857	101.325572096298	32.07752978016	
1501507388560.08	0.325301204819277	-0.602409638554217	10.0722891566265	0.117719190680564	0.00980993255671367	9.86879215205395	3986.81318681319	128.0	14.8632820284305	15.4262875031973	0.793893129770992	0.763358778625954	0.259541984732824	-0.259090909090909	0.0972727272727273	-0.086734693877551	101.322604797866	32.07752978016	
1501507388579.61	0.289156626506024	-0.614457831325301	10.0602409638554	0.127529123237278	-0.00980993255671367	9.87860208461067	3975.09157509157	128.0	14.7212985819139	15.4264798275407	0.885496183206107	0.717557251908397	0.0152671755725191	-0.259090909090909	0.0972727272727273	-0.086734693877551	101.33150669549	32.07752978016	
1501507388599.14	0.301204819277108	-0.602409638554217	10.0722891566265	0.10790925812385	-0.0196198651134273	9.87860208461067	3961.90476190476	128.0	14.864411933948	15.4354229095089	0.732824427480916	0.67175572519084	0.152671755725191	-0.248181818181818	0.105454545454545	-0.0928571428571429	101.325572096298	32.07752978016	
1501507388618.67	0.313253012048193	-0.590361445783133	10.0602409638554	0.156958920907419	0.0	9.89822194972409	3972.16117216117	128.0	14.723221825348	15.4306388414668	0.809160305343512	0.763358778625954	0.259541984732824	-0.258181818181818	0.113636363636364	-0.0816326530612245	101.325572096298	32.07752978016	
1501507388638.2	0.301204819277108	-0.614457831325301	10.0602409638554	0.137339055793991	0.0196198651134273	9.81974248927039	3975.09157509157	128.0	14.8689075154751	15.4338121931329	0.748091603053435	0.687022900763359	0.0916030534351145	-0.252727272727273	0.118181818181818	-0.0806122448979592	101.325572096298	32.07752978016	
1501507388657.73	0.313253012048193	-0.614457831325301	10.0481927710843	0.166768853464132	0.00980993255671367	9.86879215205395	3970.69597069597	128.0	14.7292079205363	15.4387405044326	0.748091603053435	0.732824427480916	0.244274809160305	-0.253636363636364	0.0981818181818182	-0.0908163265306122	101.322604797866	32.07752978016	
1501507388677.26	0.337349397590361	-0.602409638554217	10.0602409638554	0.176578786020846	0.00980993255671367	9.84917228694053	3979.48717948718	128.0	14.8686671100458	15.4208783810391	0.83969465648855	0.67175572519084	0.274809160305344	-0.255454545454545	0.1	-0.0877551020408163	101.325829234899	32.0891612441978	
1501507388696.79	0.313253012048193	-0.614457831325301	10.0602409638554	0.147148988350705	-0.00980993255671367	9.81974248927039	3957.50915750916	128.0	14.7294723665085	15.4096995285789	0.82442748091603	0.717557251908397	0.213740458015267	-0.247272727272727	0.0990909090909091	-0.086734693877551	101.325829234899	32.0891612441978	
1501507388716.32	0.313253012048193	-0.614457831325301	10.0722891566265	0.117719190680564	0.00980993255671367	9.86879215205395	3976.55677655678	128.0	14.869893177735	15.4385481800892	0.778625954198473	0.656488549618321	0.0763358778625954	-0.245454545454545	0.115454545454545	-0.0887755102040816	101.331763979756	32.0891612441978	
1501507388735.85	0.301204819277108	-0.602409638554217	10.0602409638554	0.10790925812385	0.0	9.94727161250766	3953.11355311355	128.0	14.7297127719378	15.4252778003944	0.717557251908397	0.702290076335878	0.106870229007634	-0.254545454545454	0.112727272727273	-0.0785714285714286	101.325829234899	32.0891612441978	
1501507388755.38	0.301204819277108	-0.614457831325301	10.0602409638554	0.127529123237278	0.00980993255671367	9.87860208461067	3945.78754578755	128.0	14.6227323559204	15.4178733131735	0.763358778625954	0.534351145038168	0.137404580152672	-0.25	0.104545454545455	-0.0806122448979592	101.334731353348	32.0891612441978	
1501507388774.91	0.301204819277108	-0.602409638554217	10.0843373493976	0.10790925812385	0.0	9.87860208461067	3975.09157509157	128.0	14.7306743936548	15.4294608548634	0.778625954198473	0.549618320610687	0.0610687022900763	-0.256363636363636	0.103636363636364	-0.0877551020408163	101.334731353348	32.0891612441978	
1501507388794.44	0.313253012048193	-0.614457831325301	10.0602409638554	0.147148988350705	0.00980993255671367	9.85898221949724	3963.36996336996	128.0	14.623814180352	15.4412166803539	0.83969465648855	0.625954198473282	0.0305343511450382	-0.238181818181818	0.126363636363636	-0.0744897959183674	101.328796606939	32.0891612441978	
1501507388813.97	0.313253012048193	-0.590361445783133	10.0602409638554	0.117719190680564	0.00980993255671367	9.84917228694053	3982.41758241758	128.0	14.7353863400681	15.438620301718	0.702290076335878	0.793893129770992	-0.0610687022900763	-0.25	0.0981818181818182	-0.0887755102040816	101.322861863633	32.0891612441978	
1501507388833.5	0.313253012048193	-0.614457831325301	10.0602409638554	0.117719190680564	0.0490496627835684	9.84917228694053	3973.62637362637	128.0	14.6273240996191	15.4477076269437	0.778625954198473	0.763358778625954	0.0305343511450382	-0.251818181818182	0.100909090909091	-0.0877551020408163	101.325829234899	32.0891612441978	
1501507388853.03	0.301204819277108	-0.590361445783133	10.0602409638554	0.137339055793991	0.0490496627835684	9.80993255671367	3964.83516483516	128.0	14.7374538267597	15.451481992183	0.717557251908397	0.82442748091603	0.122137404580153	-0.257272727272727	0.110909090909091	-0.0836734693877551	101.322861863633	32.0891612441978	
1501507388872.56	0.325301204819277	-0.590361445783133	10.0722891566265	0.147148988350705	0.0490496627835684	9.88841201716738	3986.81318681319	128.0	14.6263624779021	15.4277539763157	0.763358778625954	0.793893129770992	0.16793893129771	-0.251818181818182	0.110909090909091	-0.0877551020408163	101.328796606939	32.0891612441978	
1501507388892.09	0.313253012048193	-0.602409638554217	10.0481927710843	0.137339055793991	0.00980993255671367	9.84917228694053	3966.30036630037	128.0	14.7387520160777	15.4513617894683	0.702290076335878	0.793893129770992	0.213740458015267	-0.257272727272727	0.0963636363636364	-0.089795918367347	101.328796606939	32.0891612441978	
1501507388911.62	0.313253012048193	-0.614457831325301	10.0602409638554	0.147148988350705	-0.0196198651134273	9.8295524218271	3960.43956043956	128.0	14.6291511808814	15.4413849641544	0.732824427480916	0.702290076335878	0.0458015267175573	-0.257272727272727	0.0981818181818182	-0.0846938775510204	101.322861863633	32.0891612441978	
1501507388931.15	0.289156626506024	-0.602409638554217	10.0481927710843	0.127529123237278	-0.0196198651134273	9.87860208461067	3935.53113553113	128.0	14.6928105385475	15.4248931517076	0.595419847328244	0.534351145038168	0.0305343511450382	-0.242727272727273	0.106363636363636	-0.0816326530612245	101.322861863633	32.0891612441978	
1501507388950.68	0.301204819277108	-0.590361445783133	10.0481927710843	0.137339055793991	-0.00980993255671367	9.84917228694053	3975.09157509157	128.0	14.6243430722964	15.4450150861361	0.748091603053435	0.717557251908397	0.137404580152672	-0.255454545454545	0.105454545454545	-0.0918367346938776	101.322861863633	32.0891612441978	
1501507388970.21	0.337349397590361	-0.614457831325301	10.0602409638554	0.156958920907419	0.0196198651134273	9.8295524218271	3979.48717948718	128.0	14.6949741874108	15.4534773572458	0.793893129770992	0.778625954198473	0.137404580152672	-0.254545454545454	0.120909090909091	-0.0785714285714286	101.310992386327	32.0891612441978	
1501507388989.74	0.301204819277108	-0.602409638554217	10.0722891566265	0.176578786020846	0.00980993255671367	9.83936235438381	3976.55677655678	128.0	14.6281895591644	15.4558573709954	0.67175572519084	0.748091603053435	0.213740458015267	-0.252727272727273	0.111818181818182	-0.0877551020408163	101.328796606939	32.0891612441978	
1501507389009.27	0.301204819277108	-0.614457831325301	10.0602409638554	0.156958920907419	0.029429797670141	9.80993255671367	3963.36996336996	128.0	14.6947578225244	15.4447506401639	0.854961832061069	0.564885496183206	0.198473282442748	-0.257272727272727	0.0963636363636364	-0.0887755102040816	101.328796606939	32.0891612441978	
1501507389028.8	0.313253012048193	-0.602409638554217	10.0481927710843	0.166768853464132	0.0196198651134273	9.86879215205395	3973.62637362637	128.0	14.6275885455913	15.4566026278261	0.809160305343512	0.687022900763359	0.198473282442748	-0.254545454545454	0.0972727272727273	-0.0836734693877551	101.325829234899	32.0891612441978	
1501507389048.33	0.301204819277108	-0.614457831325301	10.0602409638554	0.166768853464132	0.00980993255671367	9.87860208461067	3980.95238095238	128.0	14.6963444983575	15.4529003842156	0.656488549618321	0.778625954198473	-0.0610687022900763	-0.251818181818182	0.0981818181818182	-0.0887755102040816	101.328796606939	32.0891612441978	
1501507389067.86	0.301204819277108	-0.590361445783133	10.0602409638554	0.147148988350705	0.0196198651134273	9.84917228694053	3950.18315018315	128.0	14.8561900682676	15.4609058850097	0.82442748091603	0.702290076335878	0.213740458015267	-0.251818181818182	0.0981818181818182	-0.0887755102040816	101.325829234899	32.0891612441978	
1501507389087.39	0.313253012048193	-0.614457831325301	10.0602409638554	0.156958920907419	0.0490496627835684	9.83936235438381	3945.78754578755	128.0	14.6969695524736	15.4593672902625	0.763358778625954	0.67175572519084	0.0916030534351145	-0.252727272727273	0.113636363636364	-0.0836734693877551	101.334731353348	32.0891612441978	
1501507389106.92	0.301204819277108	-0.614457831325301	10.0602409638554	0.156958920907419	0.0490496627835684	9.8295524218271	3975.09157509157	128.0	14.857656541386	15.4504482488372	0.702290076335878	0.854961832061069	0.106870229007634	-0.250909090909091	0.106363636363636	-0.0908163265306122	101.325829234899	32.0891612441978	
1501507389126.45	0.313253012048193	-0.590361445783133	10.0602409638554	0.147148988350705	0.029429797670141	9.85898221949724	3983.88278388278	128.0	14.6926903358329	15.4559054520812	0.748091603053435	0.519083969465649	0.152671755725191	-0.245454545454545	0.121818181818182	-0.086734693877551	101.322861863633	32.0891612441978	
1501507389145.98	0.313253012048193	-0.614457831325301	10.0722891566265	0.147148988350705	0.0	9.87860208461067	3976.55677655678	128.0	14.8552524870935	15.452107046299	0.748091603053435	0.687022900763359	0.229007633587786	-0.249090909090909	0.111818181818182	-0.0887755102040816	101.328796606939	32.0891612441978	
1501507389165.51	0.301204819277108	-0.614457831325301	10.0602409638554	0.147148988350705	-0.00980993255671367	9.87860208461067	3954.57875457875	128.0	14.6899497139394	15.4323216794715	0.702290076335878	0.82442748091603	0.0610687022900763	-0.247272727272727	0.110909090909091	-0.0806122448979592	101.322861863633	32.0891612441978	
1501507389185.04	0.313253012048193	-0.614457831325301	10.0602409638554	0.176578786020846	-0.0196198651134273	9.87860208461067	3980.95238095238	128.0	14.853473486917	15.4569632359699	0.763358778625954	0.900763358778626	0.137404580152672	-0.254545454545454	0.111818181818182	-0.086734693877551	101.322861863633	32.0891612441978	
1501507389204.57	0.313253012048193	-0.602409638554217	10.0481927710843	0.176578786020846	0.029429797670141	9.84917228694053	3956.04395604396	128.0	14.6873533353035	15.4446785185351	0.702290076335878	0.488549618320611	0.229007633587786	-0.255454545454545	0.116363636363636	-0.0775510204081633	101.328796606939	32.0891612441978	
1501507389224.1	0.313253012048193	-0.590361445783133	10.0722891566265	0.166768853464132	0.029429797670141	9.84917228694053	3947.25274725275	128.0	14.8540504599472	15.4560496953388	0.656488549618321	0.885496183206107	0.229007633587786	-0.256363636363636	0.0990909090909091	-0.0908163265306122	101.328796606939	32.0891612441978	
1501507389243.63	0.313253012048193	-0.602409638554217	10.0481927710843	0.137339055793991	0.029429797670141	9.86879215205395	3973.62637362637	128.0	14.8778025163574	15.4500876406933	0.82442748091603	0.870229007633588	0.183206106870229	-0.254545454545454	0.0981818181818182	-0.0928571428571429	101.325829234899	32.0891612441978	
1501507389263.16	0.301204819277108	-0.590361445783133	10.0481927710843	0.127529123237278	0.0196198651134273	9.84917228694053	3978.02197802198	128.0	14.8540745004902	15.4709548319524	0.778625954198473	0.67175572519084	0.0610687022900763	-0.25	0.123636363636364	-0.086734693877551	101.322861863633	32.0891612441978	
1501507389282.69	0.325301204819277	-0.614457831325301	10.0722891566265	0.127529123237278	0.029429797670141	9.86879215205395	3985.34798534799	128.0	14.8803988949933	15.4638869123324	0.763358778625954	0.702290076335878	0.137404580152672	-0.251818181818182	0.101818181818182	-0.089795918367347	101.322861863633	32.0891612441978	
1501507389302.22	0.325301204819277	-0.602409638554217	10.0602409638554	0.10790925812385	-0.0196198651134273	9.89822194972409	3975.09157509157	128.0	14.8556371357803	15.468839264175	0.580152671755725	0.687022900763359	-0.0458015267175573	-0.258181818181818	0.113636363636364	-0.0846938775510204	101.328796606939	32.0891612441978	
1501507389321.75	0.289156626506024	-0.614457831325301	10.0602409638554	0.117719190680564	0.0	9.84917228694053	3964.83516483516	128.0	14.8838847737175	15.4773496163706	0.732824427480916	0.702290076335878	0.229007633587786	-0.251818181818182	0.109090909090909	-0.0826530612244898	101.322861863633	32.0891612441978	
1501507389341.28	0.289156626506024	-0.626506024096386	10.0481927710843	0.156958920907419	0.0	9.85898221949724	3942.85714285714	128.0	14.8590508928757	15.4764841568252	0.900763358778626	0.83969465648855	0.458015267175573	-0.257272727272727	0.0981818181818182	-0.0928571428571429	101.325829234899	32.0891612441978	
1501507389360.81	0.289156626506024	-0.602409638554217	10.0722891566265	0.10790925812385	0.0	9.83936235438381	3976.55677655678	128.0	14.8845338683765	15.4524195733571	0.763358778625954	0.793893129770992	0.0458015267175573	-0.257272727272727	0.0963636363636364	-0.0908163265306122	101.322861863633	32.0891612441978	
1501507389380.34	0.313253012048193	-0.602409638554217	10.0722891566265	0.156958920907419	0.0	9.80993255671367	3953.11355311355	128.0	14.8592191766762	15.4794892246909	0.717557251908397	0.702290076335878	0.198473282442748	-0.248181818181818	0.117272727272727	-0.086734693877551	101.322861863633	32.0891612441978	
1501507389399.87	0.301204819277108	-0.602409638554217	10.0722891566265	0.176578786020846	0.0392397302268547	9.8295524218271	3973.62637362637	128.0	14.8843175034902	15.4415772884978	0.82442748091603	0.702290076335878	0.16793893129771	-0.248181818181818	0.1	-0.0928571428571429	101.322861863633	32.0891612441978	
1501507389419.4	0.313253012048193	-0.614457831325301	10.0481927710843	0.147148988350705	0.00980993255671367	9.87860208461067	3978.02197802198	128.0	14.7444977058368	15.4729261564723	0.748091603053435	0.809160305343512	0.244274809160305	-0.257272727272727	0.11	-0.0826530612244898	101.328796606939	32.0891612441978	
1501507389438.93	0.301204819277108	-0.614457831325301	10.0602409638554	0.137339055793991	-0.00980993255671367	9.85898221949724	3960.43956043956	128.0	14.8842934629472	15.4823019682132	0.809160305343512	0.67175572519084	0.122137404580153	-0.250909090909091	0.113636363636364	-0.0836734693877551	101.322861863633	32.0891612441978	
1501507389458.46	0.313253012048193	-0.590361445783133	10.0602409638554	0.147148988350705	0.0	9.81974248927039	3976.55677655678	128.0	14.7455554897255	15.4644879259055	0.793893129770992	0.625954198473282	0.106870229007634	-0.256363636363636	0.0981818181818182	-0.0887755102040816	101.322861863633	32.0891612441978	
1501507389477.99	0.301204819277108	-0.614457831325301	10.0602409638554	0.137339055793991	-0.00980993255671367	9.8295524218271	3956.04395604396	128.0	14.8827789087429	15.4748974809922	0.809160305343512	0.748091603053435	0.0763358778625954	-0.256363636363636	0.0981818181818182	-0.0836734693877551	101.322861863633	32.0891612441978	
1501507389497.52	0.313253012048193	-0.602409638554217	10.0722891566265	0.10790925812385	0.0392397302268547	9.83936235438381	3986.81318681319	128.0	14.744449624751	15.4724213050709	0.687022900763359	0.549618320610687	0.122137404580153	-0.252727272727273	0.117272727272727	-0.0877551020408163	101.322861863633	32.0891612441978	
1501507389517.05	0.313253012048193	-0.602409638554217	10.0602409638554	0.117719190680564	0.0392397302268547	9.87860208461067	3973.62637362637	128.0	14.8815528410537	15.4809556978093	0.83969465648855	0.702290076335878	0.0763358778625954	-0.25	0.0990909090909091	-0.0877551020408163	101.334731353348	32.0891612441978	
1501507389536.58	0.313253012048193	-0.614457831325301	10.0602409638554	0.147148988350705	0.0392397302268547	9.81974248927039	3954.57875457875	128.0	14.7451708410387	15.4748493999063	0.656488549618321	0.595419847328244	0.213740458015267	-0.233636363636364	0.139090909090909	-0.0795918367346939	101.334731353348	32.0891612441978	
1501507389556.11	0.337349397590361	-0.614457831325301	10.0602409638554	0.147148988350705	0.058859595340282	9.88841201716738	3969.23076923077	128.0	14.6365556681024	15.4711471562958	0.763358778625954	0.778625954198473	0.0916030534351145	-0.233636363636364	0.139090909090909	-0.0795918367346939	101.331763979756	32.0891612441978	
1501507389575.64	0.301204819277108	-0.602409638554217	10.0602409638554	0.147148988350705	0.029429797670141	9.84917228694053	3973.62637362637	128.0	14.7405550567971	15.4732867646162	0.854961832061069	0.610687022900763	0.0	-0.253636363636364	0.0954545454545455	-0.0918367346938776	101.322861863633	32.0891612441978	
1501507389595.17	0.313253012048193	-0.602409638554217	10.0722891566265	0.137339055793991	0.0392397302268547	9.86879215205395	3961.90476190476	128.0	14.6383106277359	15.4845136981623	0.687022900763359	0.687022900763359	0.198473282442748	-0.249090909090909	0.114545454545455	-0.0887755102040816	101.322861863633	32.0891612441978	
1501507389614.7	0.289156626506024	-0.602409638554217	10.0722891566265	0.166768853464132	0.029429797670141	9.85898221949724	3979.48717948718	128.0	14.730938839627	15.4811720626957	0.809160305343512	0.717557251908397	0.213740458015267	-0.250909090909091	0.117272727272727	-0.086734693877551	101.328796606939	32.0891612441978	
1501507389634.23	0.0	-0.662650602409639	10.0481927710843	0.235438381361128	0.00980993255671367	9.84917228694053	3948.71794871795	128.0	14.6355219247566	15.4615549796687	0.885496183206107	0.82442748091603	0.213740458015267	-0.252727272727273	0.0972727272727273	-0.0836734693877551	101.325829234899	32.0891612441978	
1501507389653.76	-0.132530120481928	-0.0602409638554217	9.8433734939759	-0.284488044144696	0.48068669527897	9.81974248927039	3973.62637362637	128.0	14.7073069859314	15.4760754675955	0.809160305343512	0.946564885496183	2.80916030534351	-0.249090909090909	0.113636363636364	-0.0795918367346939	101.325829234899	32.0891612441978	
1501507389673.29	0.132530120481928	-0.518072289156627	10.3132530120482	-0.117719190680564	0.176578786020846	10.3592887798896	3953.11355311355	128.0	14.6394405332534	15.4690075479755	0.732824427480916	-0.16793893129771	24.7786259541985	-0.248181818181818	0.0981818181818182	-0.0877551020408163	101.325829234899	32.0891612441978	
1501507389692.82	0.421686746987952	-0.590361445783133	10.1807228915663	0.10790925812385	-0.058859595340282	10.3690987124464	3954.57875457875	128.0	14.7087734590499	15.4711711968388	0.916030534351145	2.94656488549618	26.4427480916031	-0.251818181818182	0.110909090909091	-0.0785714285714286	101.325829234899	32.0891612441978	
1501507389712.35	0.759036144578313	-0.951807228915663	10.2530120481928	0.431637032495402	-0.00980993255671367	10.0355610055181	3976.55677655678	128.0	14.6426138849196	15.4850185495637	0.534351145038168	-0.625954198473282	16.0	-0.248181818181818	0.11	-0.0857142857142857	101.325829234899	32.0891612441978	
1501507389731.88	0.674698795180723	-1.14457831325301	10.0843373493976	0.529736358062538	-0.284488044144696	9.85898221949724	3960.43956043956	128.0	14.7331986506619	15.4924711178705	0.977099236641221	0.931297709923664	3.80152671755725	-0.242727272727273	0.118181818181818	-0.0795918367346939	101.325829234899	32.0891612441978	
1501507389751.41	0.602409638554217	-0.771084337349398	10.0722891566265	0.333537706928265	-0.166768853464132	9.88841201716738	3986.81318681319	128.0	14.6444890472677	15.4863888605105	0.809160305343512	0.0763358778625954	-6.82442748091603	-0.252727272727273	0.0945454545454546	-0.0836734693877551	101.328796606939	32.0891612441978	
1501507389770.94	0.373493975903614	-0.602409638554217	10.0722891566265	0.0980993255671367	-0.0392397302268547	9.81974248927039	3975.09157509157	128.0	14.7237747578352	15.4796094274055	0.732824427480916	0.595419847328244	0.0458015267175573	-0.255454545454545	0.104545454545455	-0.0846938775510204	101.319894493143	32.0891612441978	
1501507389790.47	0.301204819277108	-0.626506024096386	10.0602409638554	0.166768853464132	0.00980993255671367	9.84917228694053	3950.18315018315	128.0	14.6490086693377	15.4971109426551	0.809160305343512	0.916030534351145	0.198473282442748	-0.251818181818182	0.0972727272727273	-0.0877551020408163	101.322861863633	32.0891612441978	
1501507389810.0	0.337349397590361	-0.602409638554217	10.0722891566265	0.215818516247701	0.029429797670141	9.80012262415696	3986.81318681319	128.0	14.7137979325213	15.480739332923	0.534351145038168	0.625954198473282	0.152671755725191	-0.25	0.09	-0.0908163265306122	101.328796606939	32.0891612441978	
1501507389829.53	0.325301204819277	-0.602409638554217	10.0722891566265	0.176578786020846	0.029429797670141	9.91784181483752	3972.16117216117	128.0	14.6467488583027	15.4745128323054	0.82442748091603	0.473282442748092	0.137404580152672	-0.246363636363636	0.112727272727273	-0.0826530612244898	101.322861863633	32.0891612441978	
1501507389849.06	0.313253012048193	-0.602409638554217	10.0602409638554	0.127529123237278	0.0196198651134273	9.87860208461067	3961.90476190476	128.0	14.6996380527383	15.4879755363435	0.50381679389313	0.656488549618321	0.122137404580153	-0.248181818181818	0.110909090909091	-0.0887755102040816	101.322861863633	32.0891612441978	
1501507389868.59	0.313253012048193	-0.602409638554217	10.0602409638554	0.147148988350705	0.029429797670141	9.86879215205395	3975.09157509157	128.0	14.8320533631706	15.4652572232791	0.625954198473282	0.67175572519084	0.0763358778625954	-0.250909090909091	0.0927272727272727	-0.0846938775510204	101.322861863633	32.0891612441978	
1501507389888.12	0.313253012048193	-0.614457831325301	10.0481927710843	0.137339055793991	0.0196198651134273	9.88841201716738	3960.43956043956	128.0	14.7025469584322	15.4900189824922	0.854961832061069	0.732824427480916	0.183206106870229	-0.241818181818182	0.108181818181818	-0.076530612244898	101.334731353348	32.0891612441978	
1501507389907.65	0.301204819277108	-0.590361445783133	10.0602409638554	0.137339055793991	0.00980993255671367	9.89822194972409	3986.81318681319	128.0	14.8329909443447	15.48523491445	0.702290076335878	0.748091603053435	0.152671755725191	-0.250909090909091	0.0981818181818182	-0.0877551020408163	101.322861863633	32.0891612441978	
1501507389927.18	0.325301204819277	-0.626506024096386	10.0481927710843	0.156958920907419	-0.0196198651134273	9.85898221949724	3954.57875457875	128.0	14.702931607119	15.4975677129707	0.67175572519084	0.595419847328244	0.0458015267175573	-0.252727272727273	0.0918181818181818	-0.0938775510204082	101.325829234899	32.0891612441978	
1501507389946.71	0.325301204819277	-0.626506024096386	10.0481927710843	0.166768853464132	0.0196198651134273	9.88841201716738	3956.04395604396	128.0	14.8317889171985	15.4929278881861	0.83969465648855	0.763358778625954	0.0916030534351145	-0.248181818181818	0.109090909090909	-0.0887755102040816	101.319894493143	32.0891612441978	
1501507389966.24	0.301204819277108	-0.614457831325301	10.0481927710843	0.156958920907419	0.0392397302268547	9.86879215205395	3976.55677655678	128.0	14.7049510127248	15.4943943613046	0.732824427480916	0.67175572519084	0.0763358778625954	-0.244545454545455	0.103636363636364	-0.0826530612244898	101.325829234899	32.0891612441978	
1501507389985.77	0.289156626506024	-0.590361445783133	10.0481927710843	0.176578786020846	0.0490496627835684	9.86879215205395	3978.02197802198	128.0	14.8246007948638	15.4994669158618	0.870229007633588	0.793893129770992	0.106870229007634	-0.252727272727273	0.0909090909090909	-0.0826530612244898	101.325829234899	32.0891612441978	
1501507390005.3	0.313253012048193	-0.590361445783133	10.0722891566265	0.137339055793991	0.0196198651134273	9.84917228694053	3958.97435897436	128.0	14.701008363685	15.4848983468491	0.641221374045801	0.870229007633588	0.274809160305344	-0.252727272727273	0.106363636363636	-0.0846938775510204	101.328796606939	32.0891612441978	
1501507390024.83	-0.0602409638554217	-0.506024096385542	10.1204819277108	-0.206008583690987	0.0	9.96689147762109	3963.36996336996	128.0	14.8257066598384	15.4954040641074	0.519083969465649	0.33587786259542	12.9160305343511	-0.252727272727273	0.0945454545454546	-0.0908163265306122	101.322861863633	32.0891612441978	
1501507390044.36	0.855421686746988	-0.783132530120482	10.3734939759036	0.176578786020846	-0.0784794604537094	10.2219497240956	3973.62637362637	128.0	14.8190474294481	15.4908604014946	1.16030534351145	0.458015267175573	42.9618320610687	-0.253636363636364	0.0954545454545455	-0.089795918367347	101.319894493143	32.0891612441978	
1501507390063.89	0.253012048192771	-0.903614457831325	10.3373493975904	0.274678111587983	-0.18638871857756	10.1729000613121	3988.27838827839	128.0	14.812316077429	15.4912210096384	3.05343511450382	-11.8625954198473	-0.641221374045801	-0.248181818181818	0.109090909090909	-0.0836734693877551	101.322861863633	32.0891612441978	
1501507390083.42	0.0963855421686747	-0.481927710843373	10.6144578313253	0.117719190680564	0.0686695278969957	10.3004291845494	3976.55677655678	128.0	14.7785871957048	15.5017267268968	6.16793893129771	-10.9465648854962	-8.27480916030534	-0.252727272727273	0.0927272727272727	-0.089795918367347	101.322861863633	32.0891612441978	
1501507390102.95	0.807228915662651	-0.457831325301205	10.4819277108434	0.137339055793991	0.147148988350705	10.1729000613121	3951.64835164835	128.0	14.7189906897931	15.4555688844803	10.763358778626	-35.8015267175573	-11.4503816793893	-0.256363636363636	0.0890909090909091	-0.0826530612244898	101.322861863633	32.0891612441978	
1501507390122.48	0.951807228915663	-0.710843373493976	10.578313253012	0.490496627835684	0.0392397302268547	10.2415695892091	3982.41758241758	128.0	14.6096302600261	15.4845136981623	22.2442748091603	-66.0916030534351	10.0	-0.257272727272727	0.0890909090909091	-0.0908163265306122	101.322861863633	32.0891612441978	
1501507390142.01	1.06024096385542	-0.036144578313253	11.5783132530121	0.66707541385653	0.137339055793991	10.5358675659105	3970.69597069597	128.0	14.5222428864928	15.4652572232791	32.1526717557252	-85.1145038167939	28.0916030534351	-0.265454545454545	0.107272727272727	-0.0857142857142857	101.328796606939	32.0891612441978	
1501507390161.54	1.46987951807229	0.144578313253012	11.855421686747	1.17719190680564	0.735744941753525	11.4187614960147	3954.57875457875	128.0	14.472623205895	15.473334845702	4.25954198473282	-41.6641221374046	8.0763358778626	-0.279090909090909	0.0972727272727273	-0.086734693877551	101.325829234899	32.0891612441978	
1501507390181.07	1.33734939759036	-0.301204819277108	10.6867469879518	1.32434089515635	0.519926425505825	11.13427345187	3982.41758241758	128.0	14.5777525001072	15.4497510730924	2.29007633587786	-28.2290076335878	-6.79389312977099	-0.28	0.0990909090909091	-0.0938775510204082	101.322861863633	32.0891612441978	
1501507390200.6	1.24096385542169	-0.301204819277108	10.6626506024096	1.18700183936235	0.402207234825261	10.6732066217045	3972.16117216117	128.0	14.612563206263	15.458549911803	20.9312977099237	-39.7251908396947	-11.8473282442748	-0.290909090909091	0.0818181818181818	-0.0969387755102041	101.328796606939	32.0891612441978	
1501507390220.13	2.1566265060241	-0.397590361445783	10.9518072289157	1.54015941140405	0.304107909258124	10.6241569589209	3985.34798534799	128.0	14.6005188942574	15.4460969105677	22.9007633587786	-52.6259541984733	-8.93129770992366	-0.299090909090909	0.0854545454545455	-0.0877551020408163	101.325829234899	32.0891612441978	
1501507390239.66	1.69879518072289	-0.072289156626506	10.4698795180723	1.91293684855917	0.431637032495402	10.6437768240343	3973.62637362637	128.0	14.7155288516119	15.4570593981416	14.0	-60.0916030534351	-2.06106870229008	-0.293636363636364	0.0845454545454546	-0.0959183673469388	101.322861863633	32.0891612441978	
1501507390259.19	2.24096385542169	-0.0843373493975904	10.2771084337349	1.93255671367259	0.48068669527897	10.2219497240956	3948.71794871795	128.0	14.6760542801286	15.453405235617	27.9541984732824	-65.2519083969466	-19.3740458015267	-0.310909090909091	0.0890909090909091	-0.102040816326531	101.322861863633	32.0891612441978	
1501507390278.72	2.04819277108434	0.036144578313253	10.2409638554217	1.98160637645616	0.647455548743102	10.0846106683017	3986.81318681319	128.0	14.7564939367565	15.4469142890272	20.8396946564886	-71.1603053435115	-4.44274809160305	-0.314545454545455	0.106363636363636	-0.0948979591836735	101.325829234899	32.0891612441978	
1501507390298.25	2.10843373493976	-0.0120481927710843	9.91566265060241	1.97179644389945	0.66707541385653	9.84917228694053	3978.02197802198	128.0	14.7173318923313	15.4616992229262	23.236641221374	-72.9465648854962	-5.87786259541985	-0.324545454545455	0.11	-0.0928571428571429	101.322861863633	32.0891612441978	
1501507390317.78	2.6144578313253	-0.072289156626506	9.55421686746988	2.295524218271	0.618025751072961	9.44696505211527	3957.50915750916	128.0	14.785919561297	15.4612664931536	24.6564885496183	-74.7786259541985	-3.61832061068702	-0.339090909090909	0.0909090909090909	-0.101020408163265	101.322861863633	32.0891612441978	
1501507390337.31	2.62650602409639	-0.072289156626506	9.40963855421687	2.41324340895156	0.568976088289393	9.23114653586757	3976.55677655678	128.0	14.7450265977812	15.4310956117823	26.6564885496183	-74.3664122137405	-4.42748091603053	-0.347272727272727	0.0881818181818182	-0.0989795918367347	101.319894493143	32.0891612441978	
1501507390356.84	2.43373493975904	0.253012048192771	9.18072289156627	2.43286327406499	0.706315144083384	9.08399754751686	3980.95238095238	128.0	14.719663824995	15.4632858987593	23.3587786259542	-72.5801526717557	-5.08396946564885	-0.354545454545455	0.0927272727272727	-0.103061224489796	101.322861863633	32.0891612441978	
1501507390376.37	2.8433734939759	0.240963855421687	8.90361445783133	2.47210300429185	0.892703862660944	8.87798896382587	3976.55677655678	128.0	14.7537052337772	15.4597038578634	30.3206106870229	-70.2748091603053	-11.4961832061069	-0.368181818181818	0.0972727272727273	-0.102040816326531	101.325829234899	32.0891612441978	
1501507390395.9	3.09638554216867	0.349397590361446	8.79518072289157	2.76640098099326	0.980993255671367	8.71122011036174	3966.30036630037	128.0	14.7251931498678	15.4642956015621	26.4274809160305	-54.7786259541985	-13.0381679389313	-0.374545454545455	0.106363636363636	-0.089795918367347	101.322861863633	32.0891612441978	
1501507390415.43	3.0	0.481927710843373	8.44578313253012	2.95278969957082	1.03985285101165	8.36787247087676	3958.97435897436	128.0	14.7438966922637	15.4586941550605	18.3969465648855	-20.0763358778626	-20.6259541984733	-0.379090909090909	0.12	-0.0877551020408163	101.322861863633	32.0891612441978	
1501507390434.96	3.18072289156626	0.481927710843373	8.60240963855422	2.91354996934396	1.17719190680564	8.29920294297977	3972.16117216117	128.0	14.7176925004751	15.4497270325494	24.1984732824427	4.6412213740458	-22.0763358778626	-0.377272727272727	0.0918181818181818	-0.0948979591836735	101.322861863633	32.0891612441978	
1501507390454.49	3.44578313253012	0.385542168674699	8.72289156626506	3.17841814837523	1.11833231146536	8.31882280809319	3970.69597069597	128.0	14.7359392725554	15.4697528048062	18.4274809160305	16.0916030534351	-23.6030534351145	-0.37	0.114545454545455	-0.086734693877551	101.328796606939	32.0891612441978	
1501507390474.02	3.73493975903614	0.457831325301205	8.83132530120482	3.49233599019007	1.13795217657879	8.48559166155733	3960.43956043956	128.0	14.7097591213098	15.4613386147823	13.8320610687023	29.1297709923664	-28.1221374045802	-0.380909090909091	0.0863636363636364	-0.1	101.328796606939	32.0891612441978	
1501507390493.55	3.33734939759036	0.385542168674699	8.63855421686747	3.3746167995095	1.09871244635193	8.38749233599019	3973.62637362637	128.0	14.7317321775435	15.4723251428992	6.59541984732824	32.6259541984733	-19.2977099236641	-0.384545454545455	0.0845454545454546	-0.1	101.334731353348	32.0891612441978	
1501507390513.08	3.33734939759036	0.518072289156627	8.87951807228916	3.21765787860208	1.15757204169221	8.45616186388719	3980.95238095238	128.0	14.7103120537971	15.4816769140971	3.20610687022901	15.8931297709924	-7.86259541984733	-0.378181818181818	0.0981818181818182	-0.0938775510204082	101.322861863633	32.0891612441978	
1501507390532.61	3.18072289156626	0.662650602409639	9.16867469879518	3.1587982832618	1.31453096259963	8.77007970570202	3975.09157509157	128.0	14.7236064740348	15.4784314408022	0.656488549618321	11.969465648855	-5.46564885496183	-0.376363636363636	0.0963636363636364	-0.1	101.322861863633	32.0891612441978	
1501507390552.14	3.71084337349398	0.759036144578313	9.39759036144578	3.34518700183936	1.40282035561006	9.06437768240343	3973.62637362637	128.0	14.7044461613233	15.4784074002593	2.83969465648855	9.22137404580153	-9.43511450381679	-0.38	0.0809090909090909	-0.102040816326531	101.325829234899	32.0891612441978	
1501507390571.67	3.44578313253012	0.63855421686747	9.42168674698795	3.43347639484978	1.39301042305334	9.16247700797057	3945.78754578755	128.0	14.7236064740348	15.4576844522577	2.85496183206107	0.106870229007634	-3.70992366412214	-0.367272727272727	0.0990909090909091	-0.102040816326531	101.325829234899	32.0891612441978	
1501507390591.2	3.09638554216867	0.759036144578313	9.36144578313253	3.12936848559166	1.41263028816677	9.182096873084	3985.34798534799	128.0	14.7068261750729	15.4839126845892	0.106870229007634	-2.58015267175573	-5.3587786259542	-0.376363636363636	0.0854545454545455	-0.101020408163265	101.325829234899	32.0891612441978	
1501507390610.73	2.95180722891566	0.855421686746988	9.36144578313253	2.93316983445739	1.52053954629062	9.17228694052728	3958.97435897436	128.0	14.7317562180864	15.4782871975446	-1.46564885496183	3.6030534351145	-5.2824427480916	-0.380909090909091	0.0954545454545455	-0.0938775510204082	101.322861863633	32.0891612441978	
1501507390630.26	2.93975903614458	0.975903614457831	9.65060240963856	2.84488044144696	1.62844880441447	9.24095646842428	3958.97435897436	128.0	14.711946810716	15.4853070360788	-0.793893129770992	2.94656488549618	-1.6030534351145	-0.369090909090909	0.105454545454545	-0.0938775510204082	101.322861863633	32.0891612441978	
1501507390649.79	3.28915662650602	0.91566265060241	9.59036144578313	3.00183936235438	1.65787860208461	9.37829552421827	3972.16117216117	128.0	14.7356267454974	15.4736473727601	-2.9618320610687	5.52671755725191	-7.23664122137405	-0.382727272727273	0.0845454545454546	-0.105102040816327	101.328796606939	32.0891612441978	
1501507390669.32	3.0	0.939759036144578	9.62650602409639	3.0116492949111	1.66768853464132	9.47639484978541	3973.62637362637	128.0	14.766639045871	15.4835280359023	-0.442748091603053	-3.19083969465649	-0.549618320610687	-0.385454545454545	0.0845454545454546	-0.0989795918367347	101.330408797642	32.09497674078	
1501507390688.85	3.30120481927711	0.855421686746988	9.33734939759036	3.0116492949111	1.66768853464132	9.3292458614347	3963.36996336996	128.0	14.7424061786023	15.4892737256615	-3.95419847328244	5.17557251908397	-6.68702290076336	-0.373636363636364	0.106363636363636	-0.102040816326531	101.330408797642	32.09497674078	
1501507390708.38	3.01204819277108	0.879518072289157	9.53012048192771	3.03126916002452	1.59901900674433	9.27038626609442	3973.62637362637	128.0	14.7695719921079	15.4728780753865	0.519083969465649	-3.08396946564885	-3.45038167938931	-0.38	0.0872727272727273	-0.105102040816327	101.324473980731	32.09497674078	
1501507390727.91	2.87951807228916	0.91566265060241	9.3855421686747	2.7958307786634	1.63825873697118	9.31943592887799	3956.04395604396	128.0	14.7457478140689	15.4947068883626	-3.72519083969466	-2.38167938931298	-2.21374045801527	-0.387272727272727	0.0963636363636364	-0.105102040816327	101.330408797642	32.09497674078	
1501507390747.44	3.28915662650602	0.891566265060241	9.55421686746988	2.96259963212753	1.58920907418761	9.24095646842428	3986.81318681319	128.0	14.7733463573471	15.4761956703101	-1.20610687022901	1.34351145038168	-7.20610687022901	-0.381818181818182	0.1	-0.101020408163265	101.324473980731	32.09497674078	
1501507390766.97	3.10843373493976	0.927710843373494	9.50602409638554	3.08031882280809	1.66768853464132	9.34886572654813	3963.36996336996	128.0	14.7437284084632	15.4849704684779	-1.66412213740458	-6.16793893129771	-3.78625954198473	-0.387272727272727	0.09	-0.108163265306122	101.330408797642	32.09497674078	
1501507390786.5	2.80722891566265	0.843373493975904	9.34939759036145	2.82526057633354	1.63825873697118	9.25076640098099	3967.76556776557	128.0	14.7777457767025	15.4867735091973	-4.06106870229008	-4.6412213740458	-2.87022900763359	-0.391818181818182	0.0927272727272727	-0.102040816326531	101.324473980731	32.09497674078	
1501507390806.03	3.06024096385542	0.698795180722892	9.3855421686747	2.78602084610668	1.54996934396076	9.19190680564071	3966.30036630037	128.0	14.7418292055721	15.4503761272084	-4.24427480916031	5.87786259541985	-5.51145038167939	-0.376363636363636	0.102727272727273	-0.104081632653061	101.327441388799	32.09497674078	
1501507390825.56	3.27710843373494	0.686746987951807	9.42168674698795	3.0116492949111	1.44206008583691	9.21152667075414	3975.09157509157	128.0	14.7738992898344	15.4825904547283	-5.11450381679389	7.25190839694657	-3.06870229007634	-0.38	0.102727272727273	-0.0948979591836735	101.321506573439	32.09497674078	
1501507390845.09	3.04819277108434	0.746987951807229	9.55421686746988	3.02145922746781	1.39301042305334	9.29981606376456	3978.02197802198	128.0	14.7744762628646	15.4800661977211	-9.00763358778626	7.3587786259542	-0.274809160305344	-0.375454545454545	0.129090909090909	-0.101020408163265	101.324473980731	32.09497674078	
1501507390864.62	3.02409638554217	0.927710843373494	9.79518072289157	2.92335990190067	1.5793991416309	9.51563458001226	3976.55677655678	128.0	14.7785871957048	15.4856916847656	-5.66412213740458	5.6030534351145	-2.35114503816794	-0.383636363636364	0.104545454545455	-0.103061224489796	101.324473980731	32.09497674078	
1501507390884.15	2.98795180722892	0.759036144578313	9.57831325301205	2.93316983445739	1.54015941140405	9.42734518700184	3960.43956043956	128.0	14.7791160876492	15.4999717672632	-5.55725190839695	4.82442748091603	0.717557251908397	-0.386363636363636	0.0936363636363636	-0.113265306122449	101.330408797642	32.09497674078	
1501507390903.68	3.0	0.698795180722892	9.65060240963856	2.92335990190067	1.45187001839362	9.3979153893317	3986.81318681319	128.0	14.7768562766142	15.4922066718984	-4.7175572519084	5.87786259541985	-0.641221374045801	-0.388181818181818	0.0918181818181818	-0.110204081632653	101.327441388799	32.09497674078	
1501507390923.21	2.91566265060241	0.746987951807229	9.74698795180723	2.86450030656039	1.44206008583691	9.50582464745555	3967.76556776557	128.0	14.778226587561	15.5067752409111	-4.87022900763359	7.63358778625954	1.54198473282443	-0.380909090909091	0.115454545454545	-0.108163265306122	101.330408797642	32.09497674078	
1501507390942.74	2.91566265060241	0.771084337349398	9.78313253012048	2.82526057633354	1.45187001839362	9.56468424279583	3969.23076923077	128.0	14.7784429524473	15.4963897263674	-6.27480916030534	11.9847328244275	0.519083969465649	-0.379090909090909	0.0963636363636364	-0.110204081632653	101.330408797642	32.09497674078	
1501507390962.27	3.06024096385542	0.795180722891566	9.78313253012048	2.87431023911711	1.49110974862048	9.58430410790926	3973.62637362637	128.0	14.7796690201365	15.5100447547489	-4.36641221374046	12.4885496183206	-3.14503816793893	-0.386363636363636	0.105454545454545	-0.107142857142857	101.327441388799	32.09497674078	
1501507390981.8	3.0	0.626506024096386	9.68674698795181	2.85469037400368	1.44206008583691	9.52544451256898	3975.09157509157	128.0	14.7838280340625	15.5053808894214	-3.31297709923664	8.53435114503817	-0.748091603053435	-0.380909090909091	0.111818181818182	-0.103061224489796	101.327441388799	32.09497674078	
1501507391001.33	3.02409638554217	0.614457831325301	9.60240963855422	2.87431023911711	1.33415082771306	9.46658491722869	3975.09157509157	128.0	14.7822413582295	15.5028085513284	-3.54198473282443	8.0763358778626	1.45038167938931	-0.378181818181818	0.105454545454545	-0.112244897959184	101.330408797642	32.09497674078	
1501507391020.86	2.71084337349398	0.63855421686747	9.60240963855422	2.69773145309626	1.31453096259963	9.43715511955855	3945.78754578755	128.0	14.755364031239	15.5096120249763	-5.69465648854962	8.19847328244275	5.51145038167939	-0.368181818181818	0.144545454545455	-0.0989795918367347	101.324473980731	32.09497674078	
1501507391040.39	2.67469879518072	0.734939759036145	9.68674698795181	2.57020232985898	1.39301042305334	9.45677498467198	3960.43956043956	128.0	14.7826740880021	15.4792488192616	-4.68702290076336	11.206106870229	2.24427480916031	-0.374545454545455	0.118181818181818	-0.112244897959184	101.321506573439	32.09497674078	
1501507391059.92	2.90361445783133	0.614457831325301	9.69879518072289	2.66830165542612	1.3635806253832	9.45677498467198	3979.48717948718	128.0	14.7543543284362	15.5201658233204	-4.67175572519084	13.175572519084	-2.29007633587786	-0.382727272727273	0.100909090909091	-0.110204081632653	101.327441388799	32.09497674078	
1501507391079.45	2.78313253012048	0.590361445783133	9.66265060240964	2.71735131820969	1.31453096259963	9.52544451256898	3963.36996336996	128.0	14.7868331019282	15.5208389585224	-3.95419847328244	6.09160305343511	0.580152671755725	-0.381818181818182	0.110909090909091	-0.109183673469388	101.327441388799	32.09497674078	
1501507391098.98	2.6144578313253	0.674698795180723	9.68674698795181	2.53096259963213	1.3635806253832	9.52544451256898	3963.36996336996	128.0	14.7556044366683	15.5161991337378	-4.18320610687023	7.77099236641221	-0.0763358778625954	-0.371818181818182	0.124545454545455	-0.107142857142857	101.324473980731	32.09497674078	
1501507391118.51	2.63855421686747	0.542168674698795	9.59036144578313	2.53096259963213	1.2949110974862	9.43715511955855	3978.02197802198	128.0	14.7876504803877	15.520646634179	-2.3206106870229	7.6793893129771	0.16793893129771	-0.375454545454545	0.11	-0.107142857142857	101.324473980731	32.09497674078	
1501507391138.04	2.68674698795181	0.614457831325301	9.62650602409639	2.54077253218884	1.33415082771306	9.47639484978541	3967.76556776557	128.0	14.7577440449886	15.516127012109	-5.32824427480916	11.2671755725191	0.885496183206107	-0.36	0.113636363636364	-0.110204081632653	101.324473980731	32.09497674078	
1501507391157.57	2.60240963855422	0.72289156626506	9.85542168674699	2.53096259963213	1.31453096259963	9.56468424279583	3938.46153846154	128.0	14.7366604888432	15.5184829853157	-3.52671755725191	7.17557251908397	-0.320610687022901	-0.370909090909091	0.127272727272727	-0.112244897959184	101.324473980731	32.09497674078	
1501507391177.1	2.59036144578313	0.602409638554217	9.71084337349398	2.5113427345187	1.41263028816677	9.6137339055794	3970.69597069597	128.0	14.7581527342184	15.5106217277791	-3.0381679389313	5.64885496183206	-1.72519083969466	-0.373636363636364	0.104545454545455	-0.109183673469388	101.327441388799	32.09497674078	
1501507391196.63	2.66265060240964	0.457831325301205	9.62650602409639	2.50153280196199	1.26548129981606	9.45677498467198	3950.18315018315	128.0	14.7321168262303	15.5004285375788	-0.67175572519084	7.77099236641221	-3.55725190839695	-0.378181818181818	0.113636363636364	-0.108163265306122	101.324473980731	32.09497674078	
1501507391216.16	2.72289156626506	0.518072289156627	9.75903614457831	2.53096259963213	1.20662170447578	9.43715511955855	3975.09157509157	128.0	14.7555082744966	15.5145884173618	-4.03053435114504	5.66412213740458	-1.78625954198473	-0.365454545454545	0.117272727272727	-0.116326530612245	101.327441388799	32.09497674078	
1501507391235.69	2.65060240963855	0.590361445783133	9.91566265060241	2.56039239730227	1.2164316370325	9.65297363580625	3961.90476190476	128.0	14.7332226912049	15.5124728495844	-2.91603053435114	3.95419847328244	-0.961832061068702	-0.368181818181818	0.103636363636364	-0.11530612244898	101.324473980731	32.09497674078	
1501507391255.22	2.51807228915663	0.566265060240964	9.80722891566265	2.45248313917842	1.25567136725935	9.70202329858982	3969.23076923077	128.0	14.751830071429	15.521920782954	-1.78625954198473	3.26717557251908	-0.427480916030534	-0.368181818181818	0.112727272727273	-0.111224489795918	101.324473980731	32.09497674078	
1501507391274.75	2.68674698795181	0.457831325301205	9.74698795180723	2.53096259963213	1.17719190680564	9.60392397302268	3973.62637362637	128.0	14.7287751907637	15.4864609821392	-1.63358778625954	4.16793893129771	-1.02290076335878	-0.365454545454545	0.125454545454545	-0.112244897959184	101.324473980731	32.09497674078	
1501507391294.28	2.59036144578313	0.457831325301205	9.74698795180723	2.48191293684856	1.17719190680564	9.51563458001226	3972.16117216117	128.0	14.755364031239	15.5252864589635	-0.946564885496183	3.29770992366412	-0.717557251908397	-0.374545454545455	0.101818181818182	-0.111224489795918	101.324473980731	32.09497674078	
1501507391313.81	2.56626506024096	0.457831325301205	9.66265060240964	2.48191293684856	1.16738197424893	9.50582464745555	3986.81318681319	128.0	14.729953177367	15.5171607554548	-1.6793893129771	1.61832061068702	0.549618320610687	-0.372727272727273	0.108181818181818	-0.109183673469388	101.324473980731	32.09497674078	
1501507391333.34	2.55421686746988	0.385542168674699	9.6144578313253	2.49172286940527	1.10852237890865	9.40772532188841	3954.57875457875	128.0	14.7481759089044	15.5213678504667	-1.51145038167939	1.83206106870229	0.992366412213741	-0.363636363636364	0.116363636363636	-0.103061224489796	101.336343617655	32.09497674078	
1501507391352.87	2.5421686746988	0.457831325301205	9.65060240963856	2.45248313917842	1.11833231146536	9.38810545677498	3960.43956043956	128.0	14.72997721791	15.5180742960859	-2.91603053435114	0.290076335877863	2.09160305343511	-0.376363636363636	0.104545454545455	-0.114285714285714	101.330408797642	32.09497674078	
1501507391372.4	2.5421686746988	0.397590361445783	9.68674698795181	2.47210300429185	1.0790925812385	9.42734518700184	3978.02197802198	128.0	14.7488490441063	15.526752932082	-2.62595419847328	-0.396946564885496	1.45038167938931	-0.357272727272727	0.127272727272727	-0.105102040816327	101.330408797642	32.09497674078	
1501507391391.93	2.53012048192771	0.397590361445783	9.67469879518072	2.43286327406499	1.05947271612508	9.43715511955855	3960.43956043956	128.0	14.735097853553	15.5295656756042	-4.91603053435115	4.19847328244275	0.687022900763359	-0.365454545454545	0.117272727272727	-0.114285714285714	101.333376207261	32.09497674078	
1501507391411.46	2.59036144578313	0.27710843373494	9.55421686746988	2.45248313917842	1.03004291845494	9.33905579399142	3967.76556776557	128.0	14.747671057503	15.5105015250645	-3.2824427480916	4.83969465648855	0.977099236641221	-0.37	0.101818181818182	-0.111224489795918	101.327441388799	32.09497674078	
1501507391430.99	2.93975903614458	0.168674698795181	9.49397590361446	2.50153280196199	0.902513795217658	9.25076640098099	3978.02197802198	128.0	14.7356027049545	15.5278828375995	-6.29007633587786	1.55725190839695	3.81679389312977	-0.352727272727273	0.139090909090909	-0.104081632653061	101.330408797642	32.09497674078	
1501507391450.52	3.1566265060241	0.216867469879518	9.7710843373494	2.74678111587983	0.833844267320662	9.30962599632128	3973.62637362637	128.0	14.7481759089044	15.5157183228793	-8.94656488549618	-16.8549618320611	14.5343511450382	-0.363636363636364	0.11	-0.11734693877551	101.336343617655	32.09497674078	
1501507391470.05	2.83132530120482	0.445783132530121	10.0361445783133	2.85469037400368	1.01042305334151	9.57449417535254	3972.16117216117	128.0	14.7345689616087	15.525142215706	-15.969465648855	-46.030534351145	25.969465648855	-0.379090909090909	0.109090909090909	-0.112244897959184	101.327441388799	32.09497674078	
1501507391489.58	3.83132530120482	0.481927710843373	10.4819277108434	2.95278969957082	1.10852237890865	9.93746167995095	3976.55677655678	128.0	14.7483922737907	15.5203821882068	-11.0534351145038	-41.175572519084	20.6717557251908	-0.378181818181818	0.127272727272727	-0.103061224489796	101.327441388799	32.09497674078	
1501507391509.11	5.30120481927711	0.819277108433735	12.6746987951807	4.12017167381974	1.20662170447578	11.1048436541999	3956.04395604396	128.0	14.7825538852875	15.4979283211146	-5.34351145038168	-52.5801526717557	16.0	-0.386363636363636	0.124545454545455	-0.107142857142857	101.324473980731	32.09497674078	
1501507391528.64	5.07228915662651	1.98795180722892	12.7228915662651	5.2385039852851	1.39301042305334	12.4389944819129	3934.06593406593	128.0	14.7488730846492	15.527402026741	4.06106870229008	-108.702290076336	46.5190839694657	-0.4	0.111818181818182	-0.104081632653061	101.324473980731	32.09497674078	
1501507391548.17	5.02409638554217	0.590361445783133	11.5542168674699	5.16002452483139	1.23605150214592	12.1446965052115	3966.30036630037	128.0	14.7733463573471	15.5129777009858	-1.32824427480916	-191.374045801527	74.2290076335878	-0.4	0.111818181818182	-0.104081632653061	101.330408797642	32.09497674078	
1501507391567.7	5.73493975903615	0.132530120481928	10.9518072289157	5.4543225015328	0.941753525444513	11.2225628448804	3966.30036630037	128.0	14.7429831516325	15.5248777697338	5.31297709923664	-210.534351145038	68.8549618320611	-0.436363636363636	0.125454545454545	-0.0836734693877551	101.324473980731	32.09497674078	
1501507391587.23	5.65060240963855	0.265060240963855	8.68674698795181	5.70938074800736	0.971183323114654	9.70202329858982	3973.62637362637	128.0	14.7731780735467	15.5212476477521	47.6641221374046	-209.389312977099	38.8702290076336	-0.46	0.135454545454545	-0.0806122448979592	101.324473980731	32.09497674078	
1501507391606.76	3.48192771084337	0.192771084337349	7.44578313253012	4.57142857142857	0.814224402207235	8.23053341508277	3976.55677655678	128.0	14.7499308685379	15.5172328770836	63.8320610687023	-220.503816793893	33.6946564885496	-0.489090909090909	0.136363636363636	-0.0581632653061225	101.324473980731	32.09497674078	
1501507391626.29	4.49397590361446	0.120481927710843	6.81927710843374	4.43408951563458	0.912323727774372	7.05334150827713	3972.16117216117	128.0	14.780149830995	15.52254583707	104.564885496183	-173.312977099237	-3.40458015267176	-0.499090909090909	0.119090909090909	-0.0571428571428572	101.333376207261	32.09497674078	
1501507391645.82	5.56626506024096	0.927710843373494	7.07228915662651	5.11097486204782	1.37339055793991	6.68056407112201	3972.16117216117	128.0	14.7792122498209	15.5115833494961	117.81679389313	-88.6717557251908	-70.5496183206107	-0.509090909090909	0.103636363636364	-0.0469387755102041	101.324473980731	32.09497674078	
1501507391665.35	5.56626506024096	0.63855421686747	6.2289156626506	5.62109135499693	1.39301042305334	6.22930717351318	3951.64835164835	128.0	14.7735386816905	15.5137950794453	91.4503816793893	-71.0381679389313	-69.175572519084	-0.518181818181818	0.12	-0.0428571428571429	101.322861863633	32.0891612441978	
1501507391684.88	4.92771084337349	0.903614457831325	6.08433734939759	5.48375229920294	1.30472103004292	6.09196811771919	3986.81318681319	128.0	14.773081911375	15.523218972272	81.7404580152672	21.175572519084	-98.3206106870229	-0.517272727272727	0.0709090909090909	-0.0489795918367347	101.325829234899	32.0891612441978	
1501507391704.41	3.59036144578313	1.12048192771084	5.68674698795181	4.69895769466585	1.45187001839362	5.68976088289393	3964.83516483516	128.0	14.7736348438622	15.5240603912743	54.2900763358779	170.900763358779	-137.145038167939	-0.513636363636364	0.0709090909090909	-0.0479591836734694	101.319894493143	32.0891612441978	
1501507391723.94	2.78313253012048	1.81927710843374	5.3855421686747	3.57081545064378	1.99141630901288	5.27774371551196	3961.90476190476	128.0	14.7764475873845	15.5439419202735	36.0610687022901	281.160305343511	-149.557251908397	-0.487272727272727	0.0536363636363636	-0.0683673469387755	101.328796606939	32.0891612441978	
1501507391743.47	2.87951807228916	3.21686746987952	6.53012048192771	2.62906192519926	2.86450030656039	5.44451256897609	3970.69597069597	128.0	14.7751734386095	15.5092754573753	36.8549618320611	323.984732824427	-138.732824427481	-0.460909090909091	0.0327272727272727	-0.086734693877551	101.334731353348	32.0891612441978	
1501507391763.0	3.63855421686747	2.95180722891566	8.69879518072289	3.16860821581852	3.71796443899448	7.07296137339056	3972.16117216117	128.0	14.7772168847581	15.5411051362084	29.4656488549618	372.152671755725	-134.412213740458	-0.402727272727273	0.0509090909090909	-0.0979591836734694	101.334731353348	32.0891612441978	
1501507391782.53	4.13253012048193	2.63855421686747	8.7710843373494	3.50214592274678	3.7277743715512	7.93623543838136	3986.81318681319	128.0	14.7805585202247	15.5410570551225	23.4809160305343	238.259541984733	-68.2595419847328	-0.379090909090909	0.0281818181818182	-0.111224489795918	101.328796606939	32.0891612441978	
1501507391802.06	2.19277108433735	2.6144578313253	9.42168674698795	2.97240956468424	3.39423666462293	8.60331085223789	3973.62637362637	128.0	14.7837799529767	15.5335804462727	-26.3053435114504	125.587786259542	-27.9389312977099	-0.342727272727273	0.01	-0.119387755102041	101.322861863633	32.0891612441978	
1501507391821.59	0.433734939759036	3.45783132530121	9.28915662650602	1.25567136725935	3.85530349478847	8.83874923359902	3953.11355311355	128.0	14.7714952355419	15.5479566909421	-46.6412213740458	79.7709923664122	-16.6717557251908	-0.340909090909091	0.0236363636363636	-0.11734693877551	101.322861863633	32.0891612441978	
1501507391841.12	0.349397590361446	3.66265060240964	9.63855421686747	0.323727774371551	4.42427958307787	9.29981606376456	3985.34798534799	128.0	14.7884918993901	15.5397588658045	-48.7328244274809	70.5343511450382	-7.75572519083969	-0.320909090909091	0.0381818181818182	-0.114285714285714	101.322861863633	32.0891612441978	
1501507391860.65	0.578313253012048	3.50602409638554	10.144578313253	0.313917841814837	4.41446965052115	9.71183323114654	3966.30036630037	128.0	14.7630089238893	15.5426196904126	-40.2900763358779	45.6793893129771	-5.89312977099237	-0.311818181818182	0.06	-0.110204081632653	101.322861863633	32.0891612441978	
1501507391880.18	1.24096385542169	3.19277108433735	10.7831325301205	0.676885346413243	4.14960147148988	10.2808093194359	3972.16117216117	128.0	14.7874341155013	15.5400713928626	-31.0381679389313	10.9618320610687	7.78625954198473	-0.314545454545455	0.0263636363636364	-0.123469387755102	101.322861863633	32.0891612441978	
1501507391899.71	1.09638554216867	2.92771084337349	10.3614457831325	0.873083997547517	3.8749233599019	10.2513795217658	3976.55677655678	128.0	14.7661341944696	15.5374028925979	-35.4045801526718	2.82442748091603	17.7862595419847	-0.300909090909091	0.0436363636363636	-0.120408163265306	101.325829234899	32.0891612441978	
1501507391919.24	0.289156626506024	2.63855421686747	9.97590361445783	0.353157572041692	3.54138565297364	9.83936235438381	3969.23076923077	128.0	14.7902949401094	15.5462498123944	-37.8015267175572	-33.9083969465649	23.9236641221374	-0.309090909090909	0.0345454545454545	-0.121428571428571	101.322861863633	32.0891612441978	
1501507391938.77	1.21686746987952	2.67469879518072	9.87951807228916	0.804414469650521	3.49233599019007	9.73145309625996	3986.81318681319	128.0	14.7638503428917	15.5356719735072	-34.9465648854962	-24.0763358778626	12.8091603053435	-0.304545454545455	0.0509090909090909	-0.11530612244898	101.322861863633	32.0891612441978	
1501507391958.3	1.18072289156627	2.31325301204819	9.39759036144578	1.02023298589822	3.32556713672593	9.56468424279583	3957.50915750916	128.0	14.7925066700586	15.549567407318	-29.8015267175573	30.1832061068702	7.00763358778626	-0.311818181818182	0.0618181818181818	-0.109183673469388	101.322861863633	32.0891612441978	
1501507391977.83	0.795180722891566	2.21686746987952	9.31325301204819	0.843654199877376	3.07050889025138	9.26057633353771	3954.57875457875	128.0	14.7650523700379	15.5059578624516	-24.763358778626	33.0381679389313	18.4427480916031	-0.306363636363636	0.05	-0.121428571428571	101.325829234899	32.0891612441978	
1501507391997.36	0.602409638554217	2.06024096385542	9.19277108433735	0.618025751072961	2.93316983445739	9.04475781729001	3934.06593406593	128.0	14.7421176920872	15.5266808104532	-36.0458015267176	27.1450381679389	23.0992366412214	-0.294545454545455	0.0927272727272727	-0.114285714285714	101.322861863633	32.0891612441978	
1501507392016.89	0.879518072289157	1.73493975903614	9.0	0.500306560392397	2.67811158798283	8.86817903126916	3969.23076923077	128.0	14.7632012482327	15.5401915955772	-40.6870229007634	20.2595419847328	23.206106870229	-0.303636363636364	0.0681818181818182	-0.119387755102041	101.325829234899	32.0891612441978	
1501507392036.42	0.421686746987952	1.93975903614458	9.67469879518072	0.470876762722256	2.58982219497241	9.02513795217658	3954.57875457875	128.0	14.7404829351683	15.5448314203618	-27.1297709923664	7.00763358778626	27.6030534351145	-0.303636363636364	0.0681818181818182	-0.119387755102041	101.325829234899	32.0891612441978	
1501507392055.95	0.686746987951807	2.72289156626506	10.3373493975904	0.196198651134273	3.06069895769467	9.78050275904353	3976.55677655678	128.0	14.7697883569942	15.5557458268498	-27.7404580152672	-21.0381679389313	27.3893129770992	-0.304545454545455	0.0690909090909091	-0.118367346938776	101.322861863633	32.0891612441978	
1501507392075.48	1.56626506024096	2.06024096385542	9.20481927710843	1.30472103004292	3.2274678111588	9.70202329858982	3976.55677655678	128.0	14.7472864088161	15.5435091905009	8.38167938931298	12.8396946564886	16.2748091603053	-0.298181818181818	0.0872727272727273	-0.101020408163265	101.319894493143	32.0891612441978	
1501507392095.01	0.686746987951807	1.97590361445783	9.49397590361446	0.618025751072961	2.67811158798283	9.17228694052728	3935.53113553113	128.0	14.7754619251246	15.5599048407759	42.2595419847328	-2.29007633587786	31.0076335877863	-0.302727272727273	0.0545454545454545	-0.122448979591837	101.322861863633	32.0891612441978	
1501507392114.54	-1.87951807228916	1.32530120481928	9.37349397590362	-0.235438381361128	1.61863887185776	9.26057633353771	3976.55677655678	128.0	14.7545947338654	15.5346141896185	44.4885496183206	61.5419847328244	-33.9083969465649	-0.296363636363636	0.0681818181818182	-0.120408163265306	101.331763979756	32.0891612441978	
1501507392134.07	1.55421686746988	5.83132530120482	12.3493975903614	0.00980993255671367	5.4543225015328	10.9576946658492	3948.71794871795	128.0	14.7882514939608	15.5437495959301	51.2519083969466	67.7557251908397	-43.4503816793893	-0.280909090909091	0.0572727272727273	-0.119387755102041	101.322861863633	32.0891612441978	
1501507392153.6	0.0602409638554217	1.37349397590361	10.433734939759	0.353157572041692	3.46290619251993	10.8105456774985	3986.81318681319	128.0	14.7670958161866	15.5527647995271	4.90076335877863	28.1679389312977	16.0	-0.286363636363636	0.0390909090909091	-0.11734693877551	101.319894493143	32.0891612441978	
1501507392173.13	0.746987951807229	2.79518072289157	10.1084337349398	0.353157572041692	3.32556713672593	10.1336603310852	3963.36996336996	128.0	14.7758946548972	15.5453603123061	23.3435114503817	-1.45038167938931	-22.3206106870229	-0.284545454545455	0.0518181818181818	-0.113265306122449	101.322861863633	32.0891612441978	
1501507392192.66	1.67469879518072	1.79518072289157	10.0361445783133	1.10852237890865	2.91354996934396	9.93746167995095	3960.43956043956	128.0	14.7520704768583	15.5517310561813	31.7709923664122	-22.8396946564885	-4.68702290076336	-0.281818181818182	0.0418181818181818	-0.120408163265306	101.322861863633	32.0891612441978	
1501507392212.19	0.602409638554217	2.27710843373494	9.50602409638554	1.02023298589822	2.7958307786634	9.73145309625996	3973.62637362637	128.0	14.7595230451651	15.511294862981	18.2137404580153	-29.6793893129771	2.50381679389313	-0.283636363636364	0.0336363636363636	-0.122448979591837	101.322861863633	32.0891612441978	
1501507392231.72	-0.180722891566265	2.48192771084337	9.04819277108434	0.117719190680564	3.00183936235438	9.20171673819742	3976.55677655678	128.0	14.742838908375	15.5451199068769	18.2595419847328	-61.0381679389313	25.4198473282443	-0.273636363636364	0.0554545454545455	-0.114285714285714	101.319894493143	32.0891612441978	
1501507392251.25	0.0843373493975904	2.19277108433735	8.80722891566265	-0.264868179031269	3.16860821581852	8.84855916615573	3988.27838827839	128.0	14.7563977745848	15.55377450233	20.7480916030534	-93.5267175572519	33.8473282442748	-0.3	0.0381818181818182	-0.113265306122449	101.322861863633	32.0891612441978	
1501507392270.78	0.951807228915663	2.20481927710843	8.80722891566265	0.304107909258124	3.03126916002452	8.67198038013489	3978.02197802198	128.0	14.7478393413034	15.5497356911185	20.5343511450382	-77.557251908397	21.2213740458015	-0.312727272727273	0.0318181818181818	-0.111224489795918	101.322861863633	32.0891612441978	
1501507392290.31	2.06024096385542	2.74698795180723	8.75903614457831	1.08890251379522	3.09012875536481	8.60331085223789	3961.90476190476	128.0	14.7508924902549	15.5481730558284	40.8549618320611	-8.01526717557252	-22.6412213740458	-0.318181818181818	0.04	-0.110204081632653	101.322861863633	32.0891612441978	
1501507392309.84	1.40963855421687	2.12048192771084	9.26506024096386	1.59901900674433	3.19803801348866	8.86817903126916	3970.69597069597	128.0	14.7729376681174	15.5480768936567	41.9541984732824	12.2290076335878	-12.6870229007634	-0.319090909090909	0.0218181818181818	-0.11530612244898	101.319894493143	32.0891612441978	
1501507392329.37	0.795180722891566	2.92771084337349	9.81927710843374	0.990803188228081	3.27651747394237	8.86817903126916	3973.62637362637	128.0	14.7451468004958	15.5356719735072	-4.27480916030534	-14.5190839694656	0.977099236641221	-0.316363636363636	0.0290909090909091	-0.107142857142857	101.319894493143	32.0891612441978	
1501507392348.9	0.674698795180723	3.13253012048193	10.3253012048193	0.559166155732679	3.83568362967505	9.63335377069283	3966.30036630037	128.0	14.7698123975371	15.5382683521432	-37.8778625954198	-34.6412213740458	1.20610687022901	-0.313636363636364	0.0472727272727273	-0.107142857142857	101.325829234899	32.0891612441978	
1501507392368.43	1.06024096385542	2.65060240963855	10.0361445783133	0.608215818516248	3.7277743715512	9.81974248927039	3979.48717948718	128.0	14.744425584208	15.5398550279762	-76.6717557251908	-92.9770992366412	24.824427480916	-0.327272727272727	0.0472727272727273	-0.114285714285714	101.322861863633	32.0891612441978	
1501507392387.96	2.80722891566265	2.03614457831325	8.74698795180723	1.90312691600245	3.18822808093194	9.19190680564071	3963.36996336996	128.0	14.7657976268686	15.5520435832393	-90.5038167938931	-147.022900763359	32.3358778625954	-0.342727272727273	0.0336363636363636	-0.108163265306122	101.322861863633	32.0891612441978	
1501507392407.49	3.19277108433735	1.78313253012048	9.10843373493976	2.61925199264255	2.58982219497241	8.94665849172287	3988.27838827839	128.0	14.7460843816699	15.5467306232529	-39.4045801526718	-156.213740458015	18.5038167938931	-0.367272727272727	0.0554545454545455	-0.111224489795918	101.322861863633	32.0891612441978	
1501507392427.02	3.66265060240964	2.27710843373494	9.74698795180723	3.29613733905579	2.93316983445739	9.29981606376456	3973.62637362637	128.0	14.7645955997223	15.550553069578	-14.9618320610687	-181.068702290076	14.0763358778626	-0.372727272727273	0.0772727272727273	-0.0959183673469388	101.328796606939	32.0891612441978	
1501507392446.55	4.14457831325301	1.73493975903614	9.45783132530121	3.7277743715512	2.71735131820969	9.23114653586757	3960.43956043956	128.0	14.7795728579648	15.5308638649222	-23.9236641221374	-223.129770992366	30.9618320610687	-0.413636363636364	0.05	-0.105102040816327	101.322861863633	32.0891612441978	
1501507392466.08	4.53012048192771	2.26506024096386	9.10843373493976	4.27713059472716	2.90374003678725	9.06437768240343	3980.95238095238	128.0	14.7561092880697	15.540888771322	-11.2977099236641	-222.167938931298	40.3511450381679	-0.421818181818182	0.0718181818181818	-0.0948979591836735	101.328796606939	32.0891612441978	
1501507392485.61	4.96385542168675	2.59036144578313	9.08433734939759	4.63028816676885	2.9429797670141	8.7504598405886	3970.69597069597	128.0	14.763730140177	15.554736124047	-9.3587786259542	-162.580152671756	23.8931297709924	-0.447272727272727	0.0827272727272727	-0.0795918367346939	101.328796606939	32.0891612441978	
1501507392505.14	5.53012048192771	1.72289156626506	8.08433734939759	4.95401594114041	3.00183936235438	8.51502145922747	3964.83516483516	128.0	14.737670191646	15.5407926091503	-18.1526717557252	-133.404580152672	23.5114503816794	-0.470909090909091	0.06	-0.0755102040816327	101.325829234899	32.0891612441978	
1501507392524.67	5.45783132530121	1.69879518072289	7.8433734939759	5.39546290619252	2.71735131820969	7.8185162477008	3967.76556776557	128.0	14.7617107345713	15.5551207727338	-12.7786259541985	-105.374045801527	18.7480916030534	-0.485454545454545	0.0772727272727273	-0.0663265306122449	101.322861863633	32.0891612441978	
1501507392544.2	5.60240963855422	1.59036144578313	8.04819277108434	5.36603310852238	2.52115266707541	7.71060698957695	3970.69597069597	128.0	14.7471181250157	15.5408166496933	-13.8015267175573	-105.282442748092	9.43511450381679	-0.493636363636364	0.0745454545454545	-0.0653061224489796	101.334731353348	32.0891612441978	
1501507392563.73	6.09638554216868	1.40963855421687	7.40963855421687	5.65052115266708	2.26609442060086	7.50459840588596	3967.76556776557	128.0	14.7662543971842	15.548293258543	-23.7251908396947	-155.847328244275	9.74045801526717	-0.501818181818182	0.0845454545454546	-0.0561224489795919	101.319894493143	32.0891612441978	
1501507392583.26	6.27710843373494	1.34939759036145	7.09638554216868	5.93500919681177	2.226854690374	7.0337216431637	3975.09157509157	128.0	14.7535850310626	15.5448314203618	-34.5954198473282	-195.480916030534	4.0	-0.520909090909091	0.0872727272727273	-0.0408163265306122	101.322861863633	32.0891612441978	
1501507392602.79	6.69879518072289	1.74698795180723	7.09638554216868	6.37645616186389	2.31514408338443	6.95524218270999	3947.25274725275	128.0	14.7703412894815	15.5496395289468	-42.5801526717557	-221.358778625954	-1.49618320610687	-0.536363636363636	0.0945454545454546	-0.0193877551020408	101.325829234899	32.0891612441978	
1501507392622.32	7.14457831325301	1.43373493975904	6.16867469879518	6.64132434089516	2.39362354383814	6.39607602697731	3982.41758241758	128.0	14.7557967610117	15.5518512588959	-60.5954198473282	-224.381679389313	7.57251908396947	-0.565454545454545	0.0781818181818182	-0.00306122448979592	101.319894493143	32.0891612441978	
1501507392641.85	7.86746987951807	1.32530120481928	5.21686746987952	7.43592887798896	2.11894543225015	5.59166155732679	3969.23076923077	128.0	14.766951572929	15.5471633530255	-53.8320610687023	-212.580152671756	11.5725190839695	-0.568181818181818	0.0918181818181818	0.00918367346938776	101.328796606939	32.0891612441978	
1501507392661.38	8.3855421686747	0.939759036144578	5.19277108433735	8.02452483139178	1.84426732066217	5.10116492949111	3964.83516483516	128.0	14.7539937202923	15.5558900701074	-40.4274809160305	-177.038167938931	3.2824427480916	-0.592727272727273	0.0963636363636364	0.0295918367346939	101.335245111375	32.1124222891936	
1501507392680.91	8.78313253012048	0.963855421686747	4.59036144578313	8.41692213366033	1.78540772532189	4.71857755977928	3941.39194139194	128.0	14.7657735863257	15.5297339594047	-32.3206106870229	-173.297709923664	3.93893129770992	-0.6	0.107272727272727	0.05	101.329310073661	32.1124222891936	
1501507392700.44	9.37349397590362	1.36144578313253	4.37349397590361	8.93684855916615	1.83445738810546	4.40465971796444	3970.69597069597	128.0	14.7590662748495	15.5443025284174	-19.7557251908397	-171.801526717557	5.02290076335878	-0.610909090909091	0.106363636363636	0.0683673469387755	101.329310073661	32.1124222891936	
1501507392719.97	9.60240963855422	-0.301204819277108	3.95180722891566	9.45677498467198	1.7952176578786	4.17903126916002	3985.34798534799	128.0	14.8024354142867	15.5631743546137	42.2900763358779	-218.167938931298	85.4961832061069	-0.621818181818182	0.0945454545454546	0.0816326530612245	101.329310073661	32.1124222891936	
1501507392739.5	7.89156626506024	-0.903614457831325	2.48192771084337	8.78969957081545	0.10790925812385	2.5800122624157	3975.09157509157	128.0	14.7952232514091	15.5571882594254	56.6870229007634	-190.12213740458	74.7480916030534	-0.627272727272727	0.105454545454545	0.116326530612245	101.329310073661	32.1124222891936	
1501507392759.03	10.0602409638554	1.01204819277108	2.55421686746988	9.12323727774372	0.931943592887799	2.68792152053955	3960.43956043956	128.0	14.8056808875816	15.560193327291	17.9541984732824	-119.297709923664	-20.9007633587786	-0.63	0.102727272727273	0.118367346938776	101.33227759213	32.1124222891936	
1501507392778.56	9.95180722891566	0.783132530120482	2.3855421686747	9.59411404046597	1.59901900674433	2.02084610668302	3972.16117216117	128.0	14.7983485219894	15.552812880613	6.44274809160305	-97.0381679389313	15.8778625954198	-0.639090909090909	0.102727272727273	0.135714285714286	101.335245111375	32.1124222891936	
1501507392798.09	9.68674698795181	0.602409638554217	2.6144578313253	9.74126302881668	1.52053954629062	2.226854690374	3964.83516483516	128.0	14.7878908858169	15.5706750040064	16.5801526717557	-49.5114503816794	22.824427480916	-0.64	0.118181818181818	0.145918367346939	101.338212631395	32.1124222891936	
1501507392817.62	9.68674698795181	0.349397590361446	2.31325301204819	9.71183323114654	1.30472103004292	2.20723482526058	3964.83516483516	128.0	14.8023873332009	15.5516829750955	10.2442748091603	-34.8854961832061	10.7022900763359	-0.635454545454546	0.119090909090909	0.146938775510204	101.329310073661	32.1124222891936	
1501507392837.15	10.3012048192771	0.144578313253012	1.3855421686747	9.95708154506438	1.06928264868179	1.55977927651747	3975.09157509157	128.0	14.7905353455387	15.5604577732632	4.03053435114504	-34.5648854961832	-8.25954198473282	-0.643636363636364	0.100909090909091	0.15	101.338212631395	32.1124222891936	
1501507392856.68	10.144578313253	0.337349397590361	1.62650602409639	10.1532801961987	0.951563458001226	1.26548129981606	3970.69597069597	128.0	14.8085897932756	15.563102232985	6.09160305343511	-48.7175572519084	-9.32824427480916	-0.644545454545455	0.107272727272727	0.159183673469388	101.329310073661	32.1124222891936	
1501507392876.21	9.74698795180723	0.337349397590361	2.07228915662651	9.88841201716738	1.03004291845494	1.46167995095034	3978.02197802198	128.0	14.8014016709409	15.5632224356996	1.81679389312977	-63.8320610687023	-5.48091603053435	-0.64	0.107272727272727	0.16734693877551	101.335245111375	32.1124222891936	
1501507392895.74	11.0481927710843	0.156626506024096	1.95180722891566	10.3396689147762	1.51072961373391	2.16799509503372	3963.36996336996	128.0	14.8662149746674	15.5732473420994	3.89312977099237	-91.9236641221374	-1.6030534351145	-0.648181818181818	0.104545454545455	0.174489795918367	101.329310073661	32.1124222891936	
1501507392915.27	9.80722891566265	-0.63855421686747	0.180722891566265	10.0061312078479	0.0686695278969957	0.255058246474555	3958.97435897436	128.0	14.8669361909552	15.5681267064564	57.7557251908397	-218.870229007634	41.0534351145038	-0.648181818181818	0.115454545454545	0.201020408163265	101.335245111375	32.1124222891936	
1501507392934.8	10.4939759036145	0.698795180722892	0.0963855421686747	10.3298589822195	0.941753525444513	-0.0196198651134273	3972.16117216117	128.0	14.86861902896	15.5657226521638	12.4580152671756	-211.75572519084	-22.5496183206107	-0.645454545454546	0.126363636363636	0.236734693877551	101.329310073661	32.1124222891936	
1501507392954.33	9.97590361445783	0.240963855421687	-1.02409638554217	10.0944206008584	1.00061312078479	-0.941753525444513	3950.18315018315	128.0	14.8696527723057	15.5613472733514	11.8778625954198	-247.114503816794	-29.2671755725191	-0.647272727272727	0.109090909090909	0.255102040816327	101.338212631395	32.1124222891936	
1501507392973.86	9.87951807228916	0.831325301204819	-2.13253012048193	10.0649908031882	1.2949110974862	-2.03065603923973	3960.43956043956	128.0	14.856694919669	15.5487019477727	10.8702290076336	-272.595419847328	-39.4961832061069	-0.65	0.100909090909091	0.297959183673469	101.326342555968	32.1124222891936	
1501507392993.39	9.67469879518072	1.40963855421687	-2.98795180722892	9.6824034334764	1.85407725321888	-2.96259963212753	3973.62637362637	128.0	14.8420782695705	15.5675497334261	-5.09923664122137	-282.717557251908	-61.0076335877863	-0.635454545454546	0.0945454545454546	0.312244897959184	101.33227759213	32.1124222891936	
1501507393012.92	7.89156626506024	1.28915662650602	-3.90361445783133	8.99570815450644	2.17780502759043	-3.18822808093194	3966.30036630037	128.0	14.8360921743821	15.5612270706368	-20.0152671755725	-240.045801526718	-57.3740458015267	-0.636363636363636	0.0827272727272727	0.347959183673469	101.33227759213	32.1124222891936	
1501507393032.45	7.67469879518072	1.3855421686747	-4.13253012048193	7.97547516860822	1.92274678111588	-4.13979153893317	3985.34798534799	128.0	14.8509973109957	15.5751225044476	4.67175572519084	-149.786259541985	-58.0	-0.628181818181818	0.0963636363636364	0.370408163265306	101.335245111375	32.1124222891936	
1501507393051.98	8.14457831325301	1.39759036144578	-3.85542168674699	7.7498467198038	2.06008583690987	-4.40465971796444	3957.50915750916	128.0	14.8391934044194	15.5831039646988	15.1603053435114	-74.3969465648855	-29.9236641221374	-0.626363636363636	0.0736363636363636	0.368367346938776	101.329310073661	32.1124222891936	
1501507393071.51	8.66265060240964	2.08433734939759	-3.90361445783133	8.21091354996934	2.37400367872471	-4.29675045984059	3958.97435897436	128.0	14.8437851481182	15.5808441536638	14.2595419847328	-42.3664122137405	-15.2977099236641	-0.628181818181818	0.0718181818181818	0.380612244897959	101.326342555968	32.1124222891936	
1501507393091.04	8.7710843373494	1.65060240963855	-4.42168674698795	8.64255058246475	2.63887185775598	-4.58123850398528	3969.23076923077	128.0	14.8316446739409	15.5819980997242	7.58778625954199	-13.236641221374	-32.030534351145	-0.621818181818182	0.0727272727272727	0.378571428571429	101.33227759213	32.1124222891936	
1501507393110.57	9.21686746987952	2.2289156626506	-4.78313253012048	8.97608828939301	2.57020232985898	-4.86572654812998	3975.09157509157	128.0	14.830659011681	15.5783679777425	9.72519083969466	-19.5114503816794	-38.1679389312977	-0.614545454545454	0.0681818181818182	0.378571428571429	101.329310073661	32.1124222891936	
1501507393130.1	9.02409638554217	2.3855421686747	-4.31325301204819	9.21152667075414	3.08031882280809	-4.92458614347026	3961.90476190476	128.0	14.8152490236659	15.5782718155708	30.9465648854962	-44.763358778626	-46.6564885496183	-0.624545454545455	0.0790909090909091	0.387755102040816	101.329310073661	32.1124222891936	
1501507393149.63	7.20481927710843	0.867469879518072	-4.32530120481928	8.00490496627836	2.18761496014715	-4.74800735744942	3976.55677655678	128.0	14.8150807398654	15.5431966634429	16.5496183206107	-26.9312977099237	-65.6030534351145	-0.615454545454545	0.0672727272727273	0.393877551020408	101.329310073661	32.1124222891936	
1501507393169.16	7.55421686746988	1.72289156626506	-4.79518072289157	7.1023911710607	2.226854690374	-4.85591661557327	3963.36996336996	128.0	14.8316687144838	15.5776948425406	4.70229007633588	-28.9312977099237	-40.7786259541985	-0.617272727272727	0.0518181818181818	0.387755102040816	101.326342555968	32.1124222891936	
1501507393188.69	8.36144578313253	2.6144578313253	-5.27710843373494	7.77927651747394	2.88412017167382	-5.36603310852238	3985.34798534799	128.0	14.836765309584	15.5811807212648	-35.0534351145038	18.6870229007634	-29.4198473282443	-0.620909090909091	0.0481818181818182	0.386734693877551	101.329310073661	32.1124222891936	
1501507393208.22	7.36144578313253	2.50602409638554	-3.51807228915663	7.69098712446352	3.23727774371551	-4.64009809932557	3951.64835164835	128.0	14.8108496043105	15.575651396392	-30.5343511450382	76.4885496183206	-34.2137404580153	-0.616363636363636	0.0581818181818182	0.387755102040816	101.329310073661	32.1124222891936	
1501507393227.75	9.13253012048193	2.67469879518072	-3.37349397590361	8.32863274064991	3.41385652973636	-3.96321275291232	3954.57875457875	128.0	14.7912806023694	15.5748580584754	-44.6106870229008	121.603053435115	-58.6106870229008	-0.616363636363636	0.0509090909090909	0.369387755102041	101.329310073661	32.1124222891936	
1501507393247.28	9.71084337349398	2.21686746987952	-4.83132530120482	9.3292458614347	3.09993868792152	-4.60085836909871	3973.62637362637	128.0	14.7169232031015	15.5725982474404	-48.2442748091603	75.3435114503817	-44.1221374045802	-0.630909090909091	0.0490909090909091	0.369387755102041	101.329310073661	32.1124222891936	
1501507393266.81	8.48192771084337	2.7710843373494	-5.49397590361446	7.94604537093808	3.36480686695279	-4.99325567136726	3964.83516483516	128.0	14.756325652956	15.5848348837894	9.61832061068702	-57.5725190839695	-28.3511450381679	-0.613636363636364	0.0527272727272727	0.377551020408163	101.329310073661	32.1124222891936	
1501507393286.34	7.91566265060241	3.25301204819277	-5.45783132530121	8.69160024524831	3.71796443899448	-5.22869405272839	3980.95238095238	128.0	14.8216918891698	15.5766610991948	128.793893129771	-127.862595419847	64.1679389312977	-0.621818181818182	0.0381818181818182	0.377551020408163	101.329310073661	32.1124222891936	
1501507393305.87	4.89156626506024	0.975903614457831	-6.19277108433735	6.49417535254445	2.7271612507664	-5.9546290619252	3972.16117216117	128.0	14.9325187920553	15.6009660880923	292.106870229008	-201.618320610687	170.488549618321	-0.611818181818182	0.0790909090909091	0.405102040816327	101.329310073661	32.1124222891936	
1501507393325.4	5.31325301204819	0.91566265060241	1.91566265060241	6.62170447578173	1.11833231146536	-5.91538933169834	3967.76556776557	128.0	14.9639397816586	15.6173376978244	424.458015267176	-117.541984732824	111.297709923664	-0.602727272727273	0.121818181818182	0.412244897959184	101.33227759213	32.1124222891936	
1501507393344.93	9.65060240963856	1.25301204819277	-5.06024096385542	7.93623543838136	1.50091968117719	-5.0913549969344	3985.34798534799	128.0	14.9325668731412	15.5990909257441	71.8473282442748	43.587786259542	-37.7862595419847	-0.600909090909091	0.11	0.407142857142857	101.329310073661	32.1124222891936	
1501507393364.46	10.7228915662651	0.987951807228916	-6.6144578313253	9.93746167995095	1.60882893930104	-5.54261189454322	3970.69597069597	128.0	14.9310282783939	15.6140441434436	-170.931297709924	-57.5267175572519	-1.69465648854962	-0.607272727272727	0.111818181818182	0.419387755102041	101.329310073661	32.1124222891936	
1501507393383.99	7.50602409638554	0.63855421686747	-2.96385542168675	8.1814837522992	2.295524218271	-5.06192519926425	3958.97435897436	128.0	14.868931556018	15.5785122210001	-148.961832061069	160.717557251908	52.0916030534351	-0.610909090909091	0.113636363636364	0.403061224489796	101.329310073661	32.1124222891936	
1501507393403.52	8.69879518072289	-0.313253012048193	-5.83132530120482	7.95585530349479	0.833844267320662	-4.93439607602698	3975.09157509157	128.0	14.86056544708	15.6022883179531	-135.603053435115	106.702290076336	25.3893129770992	-0.605454545454546	0.130909090909091	0.404081632653061	101.335245111375	32.1124222891936	
1501507393423.05	6.39759036144578	0.614457831325301	-5.79518072289157	7.18087063151441	1.17719190680564	-5.47394236664623	3973.62637362637	128.0	14.853473486917	15.6067117778514	-76.2137404580153	-64.5648854961832	57.6488549618321	-0.610909090909091	0.0936363636363636	0.406122448979592	101.326342555968	32.1124222891936	
1501507393442.58	8.39759036144578	0.903614457831325	-5.33734939759036	7.74003678724709	1.35377069282649	-5.80748007357449	3978.02197802198	128.0	14.8376788502151	15.5954848443053	9.00763358778626	-41.1145038167939	15.4656488549618	-0.600909090909091	0.113636363636364	0.402040816326531	101.329310073661	32.1124222891936	
1501507393462.11	9.04819277108434	0.36144578313253	-5.93975903614458	8.51502145922747	1.28510116492949	-6.13120784794605	3956.04395604396	128.0	14.8358517689528	15.6126017108681	17.4961832061069	-5.46564885496183	8.74809160305344	-0.602727272727273	0.104545454545455	0.404081632653061	101.329310073661	32.1124222891936	
1501507393481.64	9.1566265060241	-0.144578313253012	-6.45783132530121	9.00551808706315	0.824034334763948	-6.65113427345187	3966.30036630037	128.0	14.8314042685116	15.6022883179531	2.73282442748092	-1.96946564885496	4.90076335877863	-0.610909090909091	0.110909090909091	0.410204081632653	101.329310073661	32.1124222891936	
1501507393501.17	9.27710843373494	0.397590361445783	-6.42168674698795	9.34886572654813	0.853464132434089	-6.817903126916	3969.23076923077	128.0	14.8347218634353	15.6206312522051	16.2290076335878	-25.8473282442748	-22.793893129771	-0.602727272727273	0.114545454545455	0.41734693877551	101.329310073661	32.1124222891936	
1501507393520.7	8.07228915662651	0.710843373493976	-5.68674698795181	8.38749233599019	1.30472103004292	-6.35683629675046	3976.55677655678	128.0	14.8083974689322	15.6114477648077	15.7557251908397	-56.2137404580153	-57.4351145038168	-0.600909090909091	0.0918181818181818	0.410204081632653	101.335245111375	32.1124222891936	
1501507393540.23	7.50602409638554	1.08433734939759	-5.12048192771084	7.88718577559779	1.39301042305334	-5.89576946658492	3954.57875457875	128.0	14.8039740090339	15.6025046828395	6.19847328244275	-31.2671755725191	-57.175572519084	-0.593636363636364	0.108181818181818	0.41734693877551	101.33227759213	32.1124222891936	
1501507393559.76	7.21686746987952	1.24096385542169	-5.3855421686747	7.5340282035561	1.82464745554874	-5.61128142244022	3964.83516483516	128.0	14.7697643164513	15.6115198864365	6.0	-52.8549618320611	-51.8931297709924	-0.596363636363636	0.0945454545454546	0.419387755102041	101.329310073661	32.1124222891936	
1501507393579.29	4.69879518072289	3.40963855421687	-7.25301204819277	7.20049049662784	1.71673819742489	-5.70938074800736	3964.83516483516	128.0	14.7844050070928	15.6018555881805	-5.19083969465649	-36.9618320610687	-47.4809160305344	-0.599090909090909	0.09	0.428571428571429	101.335245111375	32.1124222891936	
1501507393598.82	7.46987951807229	0.289156626506024	-5.50602409638554	5.75843041079093	2.85469037400368	-6.39607602697731	3980.95238095238	128.0	14.8025315764584	15.6153423327616	-4.67175572519084	-118.625954198473	-22.7022900763359	-0.577272727272727	0.0945454545454546	0.448979591836735	101.326342555968	32.1124222891936	
1501507393618.35	6.91566265060241	0.975903614457831	-6.65060240963855	7.06315144083384	1.49110974862048	-6.53341508277131	3978.02197802198	128.0	14.874076232204	15.5855801406201	-8.19847328244275	-111.236641221374	54.9007633587786	-0.582727272727273	0.0818181818181818	0.447959183673469	101.326342555968	32.1124222891936	
1501507393637.88	6.13253012048193	1.73493975903614	-6.03614457831325	6.50398528510116	2.15818516247701	-6.58246474555487	3958.97435897436	128.0	14.8600125145927	15.6112313999213	-5.92366412213741	-95.1603053435115	22.4427480916031	-0.571818181818182	0.0845454545454546	0.456122448979592	101.32337503905	32.1124222891936	
1501507393657.41	5.81927710843374	1.46987951807229	-6.62650602409639	5.85652973635806	2.35438381361128	-6.85714285714286	3970.69597069597	128.0	14.8554688519798	15.6149336435318	-13.8473282442748	-76.9312977099237	19.4045801526718	-0.56	0.103636363636364	0.462244897959184	101.320151167351	32.1007920804503	
1501507393676.94	5.46987951807229	0.626506024096386	-7.0	5.76824034334764	1.91293684855917	-7.11220110361741	3953.11355311355	128.0	14.8267404031841	15.6121930216384	-11.1297709923664	-75.6641221374046	26.3053435114504	-0.550909090909091	0.106363636363636	0.481632653061225	101.317183724809	32.1007920804503	
1501507393696.47	5.32530120481928	0.481927710843373	-7.02409638554217	4.83629675045984	1.04966278356836	-6.6707541385653	3951.64835164835	128.0	14.8306830522239	15.6023844801249	-2.33587786259542	-82.5343511450382	41.8625954198473	-0.552727272727273	0.0972727272727273	0.485714285714286	101.326086054763	32.1007920804503	
1501507393716.0	5.37349397590361	0.493975903614458	-7.33734939759036	5.11097486204782	1.06928264868179	-7.46535867565911	3973.62637362637	128.0	14.8165712535268	15.6012305340644	15.5572519083969	-96.9923664122137	49.9541984732824	-0.548181818181818	0.109090909090909	0.5	101.326086054763	32.1007920804503	
1501507393735.53	5.13253012048193	0.132530120481928	-6.73493975903615	4.83629675045984	0.922133660331085	-6.817903126916	3969.23076923077	128.0	14.796232954212	15.6040192370438	27.1145038167939	-124.0	55.4045801526718	-0.54	0.108181818181818	0.503061224489796	101.326086054763	32.1007920804503	
1501507393755.06	5.37349397590361	0.686746987951807	-7.72289156626506	5.07173513182097	1.23605150214592	-7.75965665236051	3982.41758241758	128.0	14.8059693740967	15.6168568869659	58.2442748091603	-156.534351145038	55.3740458015267	-0.52	0.109090909090909	0.501020408163265	101.323118610669	32.1007920804503	
1501507393774.59	5.72289156626506	0.602409638554217	-7.55421686746988	5.48375229920294	1.17719190680564	-8.04414469650521	3973.62637362637	128.0	14.8079887797024	15.6140922245295	36.5648854961832	-121.75572519084	52.6412213740458	-0.507272727272727	0.139090909090909	0.514285714285714	101.323118610669	32.1007920804503	
1501507393794.12	6.28915662650602	1.09638554216867	-7.97590361445783	6.09196811771919	1.67749846719804	-8.23053341508277	3947.25274725275	128.0	14.8815288005108	15.6243094552727	28.9770992366412	-80.5648854961832	29.8625954198473	-0.492727272727273	0.139090909090909	0.529591836734694	101.323118610669	32.1007920804503	
1501507393813.65	5.27710843373494	0.445783132530121	-8.5421686746988	5.94481912936849	1.62844880441447	-8.58369098712446	3983.88278388278	128.0	14.921027412537	15.5988986014007	45.0076335877863	-77.8778625954198	8.61068702290076	-0.497272727272727	0.137272727272727	0.530612244897959	101.323118610669	32.1007920804503	
1501507393833.18	4.93975903614458	0.27710843373494	-8.93975903614458	5.19926425505825	0.990803188228081	-8.85836909871245	3975.09157509157	128.0	14.9777630938407	15.6141403056153	76.2137404580153	-92.3358778625954	11.175572519084	-0.482727272727273	0.150909090909091	0.537755102040816	101.317183724809	32.1007920804503	
1501507393852.71	3.95180722891566	-0.313253012048193	-9.28915662650602	4.61066830165543	0.66707541385653	-9.5450643776824	3950.18315018315	128.0	14.966704444095	15.5847868027036	78.2748091603053	-94.1679389312977	4.6412213740458	-0.470909090909091	0.140909090909091	0.527551020408163	101.326086054763	32.1007920804503	
1501507393872.24	4.40963855421687	-0.506024096385542	-9.3855421686747	4.10055180870631	0.353157572041692	-9.79031269160024	3973.62637362637	128.0	14.9532898211427	15.6075531968538	63.8320610687023	-90.1526717557252	4.83969465648855	-0.460909090909091	0.15	0.533673469387755	101.326086054763	32.1007920804503	
1501507393891.77	2.85542168674699	-0.602409638554217	-9.69879518072289	3.7277743715512	0.00980993255671367	-9.80993255671367	3964.83516483516	128.0	14.9085263302159	15.6195494277735	76.6564885496183	-113.480916030534	-6.65648854961832	-0.452727272727273	0.178181818181818	0.537755102040816	101.323118610669	32.1007920804503	
1501507393911.3	2.56626506024096	-0.759036144578313	-9.36144578313253	2.7271612507664	-0.137339055793991	-9.96689147762109	3980.95238095238	128.0	14.8453718239512	15.6098130078888	50.4580152671756	-131.297709923664	23.6030534351145	-0.432727272727273	0.168181818181818	0.538775510204082	101.323118610669	32.1007920804503	
1501507393930.83	2.12048192771084	-1.03614457831325	-8.71084337349398	2.49172286940527	-0.392397302268547	-9.19190680564071	3956.04395604396	128.0	14.7946943594648	15.6212322657783	68.5954198473282	-146.137404580153	28.3206106870229	-0.43	0.177272727272727	0.546938775510204	101.326086054763	32.1007920804503	
1501507393950.36	1.51807228915663	-1.69879518072289	-8.98795180722892	1.55977927651747	-0.931943592887799	-9.113427345187	3956.04395604396	128.0	14.7552197879815	15.6130825217266	81.3435114503817	-163.038167938931	42.5343511450382	-0.406363636363636	0.195454545454545	0.554081632653061	101.326086054763	32.1007920804503	
1501507393969.89	1.96385542168675	-1.31325301204819	-8.65060240963856	1.5793991416309	-0.951563458001226	-9.17228694052728	3969.23076923077	128.0	14.7308667179982	15.6089956294293	93.1603053435115	-182.167938931298	42.381679389313	-0.389090909090909	0.214545454545455	0.557142857142857	101.326086054763	32.1007920804503	
1501507393989.42	1.28915662650602	-1.56626506024096	-8.81927710843374	1.2164316370325	-1.05947271612508	-9.36848559166156	3964.83516483516	128.0	14.7333669344624	15.6180348735692	77.1908396946565	-186.580152671756	30.1679389312977	-0.361818181818182	0.201818181818182	0.547959183673469	101.323118610669	32.1007920804503	
1501507394008.95	0.493975903614458	-1.72289156626506	-8.59036144578313	0.676885346413243	-1.19681177191907	-9.17228694052728	3945.78754578755	128.0	14.7360354347271	15.605870358849	57.969465648855	-197.893129770992	25.175572519084	-0.336363636363636	0.226363636363636	0.552040816326531	101.326086054763	32.1007920804503	
1501507394028.48	-0.795180722891566	-1.66265060240964	-8.24096385542169	-0.117719190680564	-1.18700183936235	-8.7504598405886	3973.62637362637	128.0	14.7432956786906	15.6157991030771	-9.86259541984733	-246.488549618321	37.0076335877863	-0.330909090909091	0.210909090909091	0.552040816326531	101.326086054763	32.1007920804503	
1501507394048.01	-1.67469879518072	-2.27710843373494	-8.27710843373494	-1.28510116492949	-1.68730839975475	-8.70141017780503	3972.16117216117	128.0	14.7448583139807	15.6119526162091	-33.4656488549618	-296.091603053435	33.3435114503817	-0.29	0.219090909090909	0.547959183673469	101.334988391697	32.1007920804503	
1501507394067.54	-2.32530120481928	-1.95180722891566	-10.3373493975904	-1.6480686695279	-1.76578786020846	-9.38810545677498	3964.83516483516	128.0	14.7653648970959	15.6195253872306	-53.8778625954198	-273.129770992366	21.5419847328244	-0.261818181818182	0.215454545454545	0.543877551020408	101.326086054763	32.1007920804503	
1501507394087.07	-2.95180722891566	-1.85542168674699	-9.89156626506024	-2.46229307173513	-1.89331698344574	-10.5456774984672	3972.16117216117	128.0	14.7928191971166	15.5855080189913	-26.9923664122137	-193.480916030534	11.0229007633588	-0.233636363636364	0.198181818181818	0.540816326530612	101.326086054763	32.1007920804503	
1501507394106.6	-4.57831325301205	-1.78313253012048	-8.63855421686747	-3.69834457388105	-1.67749846719804	-9.80012262415696	3950.18315018315	128.0	14.7876745209306	15.6162318328498	3.57251908396947	-206.564885496183	-0.0458015267175573	-0.21	0.225454545454545	0.545918367346939	101.323118610669	32.1007920804503	
1501507394126.13	-4.33734939759036	-1.78313253012048	-7.91566265060241	-4.39484978540773	-1.40282035561006	-8.84855916615573	3973.62637362637	128.0	14.7979157922168	15.6043798451876	-10.9770992366412	-171.847328244275	-9.93893129770992	-0.182727272727273	0.229090909090909	0.534693877551021	101.329053499632	32.1007920804503	
1501507394145.66	-4.90361445783133	-1.8433734939759	-8.34939759036145	-4.85591661557327	-1.46167995095034	-8.64255058246475	3973.62637362637	128.0	14.7830106556031	15.609428359202	-16.8702290076336	-147.587786259542	-6.83969465648855	-0.180909090909091	0.194545454545455	0.529591836734694	101.332020945277	32.1007920804503	
1501507394165.19	-5.09638554216868	-1.92771084337349	-8.34939759036145	-5.0913549969344	-1.50091968117719	-8.71122011036174	3958.97435897436	128.0	14.7964974001842	15.6201744818895	12.0152671755725	-122.427480916031	-5.3587786259542	-0.160909090909091	0.207272727272727	0.522448979591837	101.326086054763	32.1007920804503	
1501507394184.72	-5.74698795180723	-2.18072289156626	-6.96385542168675	-5.44451256897609	-1.58920907418761	-7.98528510116493	3970.69597069597	128.0	14.7846213719791	15.6207033738339	21.8015267175573	-95.0076335877863	-3.6793893129771	-0.152727272727273	0.204545454545455	0.506122448979592	101.332020945277	32.1007920804503	
1501507394204.25	-5.21686746987952	-1.87951807228916	-7.34939759036145	-5.83690987124464	-1.65787860208461	-7.76946658491723	3973.62637362637	128.0	14.8030123873169	15.6157510219913	5.08396946564885	-85.175572519084	-9.05343511450382	-0.135454545454545	0.200909090909091	0.5	101.329053499632	32.1007920804503	
1501507394223.78	-5.72289156626506	-1.93975903614458	-6.80722891566265	-5.84671980380135	-1.56958920907419	-7.41630901287554	3983.88278388278	128.0	14.8151769020371	15.6277232123681	-0.381679389312977	-70.7175572519084	1.55725190839695	-0.13	0.213636363636364	0.497959183673469	101.326086054763	32.1007920804503	
1501507394243.31	-5.51807228915663	-1.78313253012048	-6.65060240963855	-5.82709993868792	-1.45187001839362	-7.16125076640098	3975.09157509157	128.0	14.8027479413447	15.614885562446	-11.6030534351145	-48.2748091603053	6.74809160305344	-0.122727272727273	0.221818181818182	0.497959183673469	101.326086054763	32.1007920804503	
1501507394262.84	-5.91566265060241	-1.71084337349398	-6.80722891566265	-5.98405885959534	-1.31453096259963	-7.1023911710607	3950.18315018315	128.0	14.8152249831229	15.6262086581638	-12.0610687022901	-44.9770992366412	8.83969465648855	-0.128181818181818	0.192727272727273	0.494897959183674	101.326086054763	32.1007920804503	
1501507394282.37	-6.26506024096386	-1.85542168674699	-6.6144578313253	-6.25873697118332	-1.4322501532802	-7.02391171060699	3983.88278388278	128.0	14.8021709683145	15.6188522520287	-2.82442748091603	-51.4045801526718	4.48854961832061	-0.12	0.204545454545455	0.491836734693878	101.326086054763	32.1007920804503	
1501507394301.9	-5.7710843373494	-1.42168674698795	-6.89156626506024	-6.2391171060699	-1.15757204169221	-7.1023911710607	3973.62637362637	128.0	14.8118593071134	15.6134671704134	2.90076335877863	-53.2519083969466	-3.70992366412214	-0.107272727272727	0.217272727272727	0.497959183673469	101.332020945277	32.1007920804503	
1501507394321.43	-6.14457831325301	-1.46987951807229	-6.85542168674699	-6.32740649908032	-1.06928264868179	-7.16125076640098	3960.43956043956	128.0	14.7986610490474	15.5895949112886	0.427480916030534	-11.618320610687	3.54198473282443	-0.113636363636364	0.196363636363636	0.480612244897959	101.326086054763	32.1007920804503	
1501507394340.96	-6.60240963855422	-1.69879518072289	-6.73493975903615	-6.44512568976088	-1.1477621091355	-7.15144083384427	3970.69597069597	128.0	14.8159461994107	15.6149576840748	-1.74045801526718	7.25190839694657	5.45038167938931	-0.108181818181818	0.22	0.490816326530612	101.326086054763	32.1007920804503	
1501507394360.49	-6.74698795180723	-1.91566265060241	-6.87951807228916	-6.86695278969957	-1.41263028816677	-7.19068056407112	3963.36996336996	128.0	14.8035172387183	15.6222179280382	-0.366412213740458	35.0381679389313	4.22900763358779	-0.106363636363636	0.214545454545455	0.495918367346939	101.326086054763	32.1007920804503	
1501507394380.02	-5.91566265060241	-1.65060240963855	-6.87951807228916	-6.56284488044145	-1.42244022072348	-7.21030042918455	3983.88278388278	128.0	14.8122679963431	15.608130169884	8.82442748091603	-13.969465648855	-3.58778625954198	-0.116363636363636	0.194545454545455	0.493877551020408	101.326086054763	32.1007920804503	
1501507394399.55	-6.31325301204819	-1.67469879518072	-6.72289156626506	-6.34702636419375	-1.22624156958921	-7.16125076640098	3972.16117216117	128.0	14.8029643062311	15.6251508742751	8.16793893129771	-12.2290076335878	4.93129770992366	-0.115454545454545	0.206363636363636	0.497959183673469	101.332020945277	32.1007920804503	
1501507394419.08	-6.28915662650602	-1.63855421686747	-6.75903614457831	-6.54322501532802	-1.23605150214592	-7.07296137339056	3950.18315018315	128.0	14.8129170910021	15.6228429821542	2.29007633587786	-11.8320610687023	3.70992366412214	-0.114545454545455	0.203636363636364	0.483673469387755	101.323118610669	32.1007920804503	
1501507394438.61	-6.43373493975904	-1.67469879518072	-7.1566265060241	-6.58246474555487	-1.17719190680564	-7.28877988963826	3983.88278388278	128.0	14.8025315764584	15.6133710082417	-6.91603053435115	-4.18320610687023	6.30534351145038	-0.11	0.195454545454545	0.481632653061225	101.317183724809	32.1007920804503	
1501507394458.14	-6.48192771084337	-1.89156626506024	-6.6144578313253	-6.68056407112201	-1.46167995095034	-7.18087063151441	3976.55677655678	128.0	14.8128690099163	15.6285405908275	-3.46564885496183	-49.2213740458015	5.26717557251908	-0.106363636363636	0.209090909090909	0.485714285714286	101.326086054763	32.1007920804503	
1501507394477.67	-5.79518072289157	-1.71084337349398	-5.93975903614458	-6.44512568976088	-1.38320049049663	-6.70999386879215	3942.85714285714	128.0	14.8010170222541	15.6205591305763	11.1450381679389	-112.473282442748	4.61068702290076	-0.0918181818181818	0.215454545454545	0.473469387755102	101.326086054763	32.1007920804503	
1501507394497.2	-6.73493975903615	-2.13253012048193	-5.28915662650602	-6.6020846106683	-1.54996934396076	-6.2391171060699	3973.62637362637	128.0	14.8064261444123	15.6217371171797	5.00763358778626	-159.541984732824	23.0076335877863	-0.0927272727272727	0.189090909090909	0.46734693877551	101.323118610669	32.1007920804503	
