"sep=	"
Shimmer_001_Timestamp_Unix_CAL	Shimmer_001_Accel_LN_X_CAL	Shimmer_001_Accel_LN_Y_CAL	Shimmer_001_Accel_LN_Z_CAL	Shimmer_001_Accel_WR_X_CAL	Shimmer_001_Accel_WR_Y_CAL	Shimmer_001_Accel_WR_Z_CAL	Shimmer_001_Battery_CAL	Shimmer_001_ECG_EMG_Status1_CAL	Shimmer_001_EMG_CH1_24BIT_CAL	Shimmer_001_EMG_CH2_24BIT_CAL	Shimmer_001_Gyro_X_CAL	Shimmer_001_Gyro_Y_CAL	Shimmer_001_Gyro_Z_CAL	Shimmer_001_Mag_X_CAL	Shimmer_001_Mag_Y_CAL	Shimmer_001_Mag_Z_CAL	Shimmer_001_Pressure_BMP180_CAL	Shimmer_001_Temperature_BMP180_CAL	
ms	m/(s^2)	m/(s^2)	m/(s^2)	m/(s^2)	m/(s^2)	m/(s^2)	mV	no_units	mV	mV	deg/s	deg/s	deg/s	local_flux	local_flux	local_flux	kPa	Degrees Celsius	
1501504435534.91	0.301204819277108	9.28915662650602	5.37349397590361	0.637645616186389	10.790925812385	4.77743715511956	4001.4652014652	128.0	10.7962231790491	8.58588758141449	40.9923664122137	-23.4045801526718	-34.7480916030534	-0.394545454545455	-0.222727272727273	0.0255102040816327	101.281936331265	33.584453162484	
1501504435554.44	-0.072289156626506	8.8433734939759	5.48192771084337	0.058859595340282	10.3887185775598	5.17964438994482	4001.4652014652	128.0	10.9423175584059	8.6980847952467	42.381679389313	-5.20610687022901	-39.3129770992366	-0.392727272727273	-0.237272727272727	0.026530612244898	101.287889756837	33.584453162484	
1501504435573.97	-0.325301204819277	8.2289156626506	4.32530120481928	-0.255058246474555	9.78050275904353	4.63028816676885	4002.9304029304	128.0	11.0449706766968	8.85307417548587	33.4045801526718	20.0610687022901	-43.4503816793893	-0.393636363636364	-0.244545454545455	0.0275510204081633	101.281936331265	33.584453162484	
1501504435593.51	-0.91566265060241	7.55421686746988	3.91566265060241	-0.77498467198038	9.13304721030043	3.96321275291232	4001.4652014652	128.0	11.1875551367865	9.00301504171074	8.3969465648855	25.206106870229	-49.1908396946565	-0.391818181818182	-0.249090909090909	0.0255102040816327	101.287889756837	33.584453162484	
1501504435613.04	-1.31325301204819	6.96385542168675	4.03614457831325	-1.38320049049663	8.32863274064991	3.73758430410791	4001.4652014652	128.0	11.277803334928	9.10198995693405	8.85496183206107	15.7557251908397	-45.587786259542	-0.390909090909091	-0.250909090909091	0.0326530612244898	101.278959619649	33.584453162484	
1501504435632.57	-1.1566265060241	7.51807228915663	4.57831325301205	-1.47148988350705	8.29920294297977	3.98283261802575	4002.9304029304	128.0	11.4049056853738	9.24498310625352	32.5343511450382	-27.969465648855	-31.9083969465649	-0.390909090909091	-0.263636363636364	0.0316326530612245	101.281936331265	33.584453162484	
1501504435652.1	-0.927710843373494	7.60240963855422	5.25301204819277	-1.2164316370325	8.51502145922747	4.47332924586144	4001.4652014652	128.0	11.4857540312315	9.33321189878924	16.4580152671756	-15.5572519083969	-30.0610687022901	-0.392727272727273	-0.269090909090909	0.0326530612244898	101.287889756837	33.584453162484	
1501504435671.63	-1.0	7.60240963855422	5.32530120481928	-1.26548129981606	8.67198038013489	4.86572654812998	4001.4652014652	128.0	11.5531877541369	9.40785778457218	-10.1832061068702	-8.85496183206107	-28.2290076335878	-0.395454545454545	-0.277272727272727	0.0346938775510204	101.281936331265	33.584453162484	
1501504435691.16	-1.26506024096386	7.34939759036145	5.49397590361446	-1.41263028816677	8.42673206621704	5.0226854690374	4001.4652014652	128.0	11.6713710631574	9.54635535236462	-19.3587786259542	-13.5267175572519	-23.3129770992366	-0.397272727272727	-0.277272727272727	0.0316326530612245	101.287889756837	33.584453162484	
1501504435710.69	-1.28915662650602	7.73493975903615	5.32530120481928	-1.42244022072348	8.57388105456775	5.06192519926425	4001.4652014652	128.0	11.7352227451669	9.61953476502912	-30.5343511450382	-20.381679389313	-14.1984732824427	-0.400909090909091	-0.284545454545455	0.0306122448979592	101.278959619649	33.584453162484	
1501504435730.22	-0.55421686746988	8.21686746987952	6.10843373493976	-1.06928264868179	9.04475781729001	5.5229920294298	4002.9304029304	128.0	11.8424916476995	9.74841611565146	-27.0534351145038	-30.3969465648855	-8.77862595419847	-0.401818181818182	-0.285454545454545	0.023469387755102	101.275982908814	33.584453162484	
1501504435749.76	0.180722891566265	8.59036144578313	6.26506024096386	-0.608215818516248	9.43715511955855	5.72900061312078	4000.0	128.0	11.9021843157829	9.82113875800039	-39.2977099236641	-31.3893129770992	-12.9312977099237	-0.409090909090909	-0.29	0.0193877551020408	101.278959619649	33.584453162484	
1501504435769.29	0.192771084337349	7.68674698795181	6.24096385542169	-0.10790925812385	9.29000613120785	5.79767014101778	4001.4652014652	128.0	11.9932739329267	9.89097653519828	-66.9770992366412	-33.4045801526718	-32.1984732824427	-0.407272727272727	-0.289090909090909	0.0204081632653061	101.270029489485	33.584453162484	
1501504435788.82	-0.0240963855421687	7.04819277108434	6.02409638554217	-0.0196198651134273	8.65236051502146	5.90557939914163	4002.9304029304	128.0	12.0525338712375	10.0006735325663	-52.6106870229008	-29.3282442748092	-41.5572519083969	-0.406363636363636	-0.288181818181818	0.0112244897959184	101.278959619649	33.584453162484	
1501504435808.35	-0.951807228915663	6.53012048192771	5.36144578313253	-0.549356223175966	7.88718577559779	5.6701410177805	4001.4652014652	128.0	12.147277650906	10.1108032597069	-8.80916030534351	-19.6335877862595	-65.6946564885496	-0.407272727272727	-0.289090909090909	0.00816326530612245	101.281936331265	33.584453162484	
1501504435827.88	1.56626506024096	7.37349397590361	5.27710843373494	-0.264868179031269	7.78908645003066	5.07173513182097	4001.4652014652	128.0	12.1995658317684	10.1716739143937	-17.2519083969466	-20.2290076335878	-86.5496183206107	-0.399090909090909	-0.296363636363636	0.00816326530612245	101.287889756837	33.584453162484	
1501504435847.41	1.98795180722892	7.09638554216868	4.8433734939759	0.941753525444513	8.0343347639485	4.65971796443899	4001.4652014652	128.0	12.2550033237541	10.2374007587513	-39.1603053435114	-2.6412213740458	-44.0152671755725	-0.394545454545455	-0.298181818181818	0.00408163265306122	101.281936331265	33.584453162484	
1501504435866.94	0.698795180722892	7.03614457831325	5.74698795180723	0.88289393010423	7.77927651747394	5.12078479460454	3997.0695970696	128.0	12.3308752772262	10.3328897952505	-9.06870229007634	42.7633587786259	5.93893129770992	-0.395454545454545	-0.300909090909091	0.00102040816326531	101.287889756837	33.584453162484	
1501504435886.47	0.180722891566265	6.1566265060241	5.21686746987952	0.304107909258124	7.44573881054568	5.03249540159411	4001.4652014652	128.0	12.3687150917906	10.3990734099237	-2.7175572519084	67.236641221374	20.2748091603053	-0.395454545454545	-0.302727272727273	0.00306122448979592	101.275982908814	33.584453162484	
1501504435906.01	-0.265060240963855	6.59036144578313	5.62650602409639	-0.421827099938688	7.46535867565911	5.21888412017167	4001.4652014652	128.0	12.4302348411363	10.4907159595548	-9.05343511450382	31.206106870229	1.95419847328244	-0.395454545454545	-0.302727272727273	0.00306122448979592	101.275982908814	33.584453162484	
1501504435925.54	1.04819277108434	6.01204819277108	6.19277108433735	0.323727774371551	7.1023911710607	5.65052115266708	4000.0	128.0	12.4658148446657	10.540840491554	57.6030534351145	0.0152671755725191	29.4045801526718	-0.400909090909091	-0.309090909090909	0.00714285714285714	101.278959619649	33.584453162484	
1501504435945.07	1.03614457831325	7.3855421686747	9.24096385542169	0.559166155732679	7.77927651747394	7.47516860821582	3998.5347985348	128.0	12.5176943362984	10.6335889061597	-4.48854961832061	-80.7480916030534	67.4656488549618	-0.410909090909091	-0.315454545454545	0.0142857142857143	101.281936331265	33.584453162484	
1501504435964.6	2.18072289156626	7.86746987951807	8.16867469879518	1.38320049049663	8.61312078479461	7.7498467198038	4001.4652014652	128.0	12.544860149804	10.6881609386	-77.206106870229	-86.824427480916	90.0152671755725	-0.440909090909091	-0.309090909090909	0.0173469387755102	101.287889756837	33.584453162484	
1501504435984.13	2.09638554216867	6.42168674698795	4.65060240963855	1.87369711833231	7.97547516860822	5.65052115266708	4000.0	128.0	12.5764253826648	10.7443917685022	-108.076335877863	13.0076335877863	100.961832061069	-0.456363636363636	-0.300909090909091	0.0142857142857143	101.278959619649	33.584453162484	
1501504436003.66	1.71084337349398	4.36144578313253	3.32530120481928	1.60882893930104	6.04291845493562	3.82587369711833	4000.0	128.0	12.6496769169581	10.784010583243	-69.0534351145038	38.1221374045802	90.4274809160305	-0.475454545454546	-0.284545454545455	0.00102040816326531	101.281936331265	33.584453162484	
1501504436023.19	3.13253012048193	5.89156626506024	5.43373493975904	1.62844880441447	6.13120784794605	4.17903126916002	4001.4652014652	128.0	12.7020372194494	10.8684890510824	-71.5419847328244	-68.2595419847328	96.7328244274809	-0.485454545454545	-0.277272727272727	-0.00306122448979592	101.281936331265	33.584453162484	
1501504436042.72	2.90361445783133	6.10843373493976	7.96385542168675	2.30533415082771	6.69037400367872	5.67995095033722	4001.4652014652	128.0	12.7968531207466	10.9561889516738	-73.9236641221374	-115.511450381679	126.045801526718	-0.517272727272727	-0.254545454545454	0.0	101.278959619649	33.584453162484	
1501504436062.26	-0.783132530120482	5.45783132530121	9.32530120481928	1.67749846719804	7.18087063151441	7.76946658491723	4001.4652014652	128.0	12.8750570068825	11.0083809703645	-128.793893129771	-186.748091603053	182.396946564886	-0.538181818181818	-0.241818181818182	0.00204081632653061	101.275982908814	33.584453162484	
1501504436081.79	-0.216867469879518	6.78313253012048	7.72289156626506	-1.23605150214592	6.75904353157572	8.49540159411404	4001.4652014652	128.0	13.0104293040946	11.0855511131546	-181.984732824427	-131.847328244275	8.35114503816794	-0.580909090909091	-0.205454545454545	0.00816326530612245	101.281936331265	33.584453162484	
1501504436101.32	5.14457831325301	4.7710843373494	5.21686746987952	2.15818516247701	6.93562231759657	6.26854690374004	4001.4652014652	128.0	13.101350637438	11.1337524017198	-152.290076335878	-202.42748091603	-2.58015267175573	-0.591818181818182	-0.199090909090909	0.00612244897959184	101.275982908814	33.584453162484	
1501504436120.85	3.08433734939759	4.16867469879518	7.93975903614458	3.29613733905579	5.26793378295524	6.65113427345187	4001.4652014652	128.0	13.2008544446056	11.2061384764677	-57.6793893129771	-98.3664122137405	52.3511450381679	-0.615454545454545	-0.181818181818182	0.023469387755102	101.273006198759	33.584453162484	
1501504436140.38	3.21686746987952	6.26506024096386	9.34939759036145	3.02145922746781	6.15082771305947	8.22072348252606	4001.4652014652	128.0	13.2542244498997	11.2557581570655	-75.9083969465649	-68.3053435114504	77.3740458015267	-0.629090909090909	-0.175454545454545	0.0255102040816327	101.278959619649	33.584453162484	
1501504436159.91	3.59036144578313	5.7710843373494	8.68674698795181	3.25689760882894	6.79828326180258	8.73083997547517	4002.9304029304	128.0	13.305286563073	11.3043200537745	-90.7175572519084	-33.3435114503817	59.1145038167939	-0.651818181818182	-0.151818181818182	0.0397959183673469	101.275982908814	33.584453162484	
1501504436179.44	4.30120481927711	5.16867469879518	8.04819277108434	3.84549356223176	6.50398528510116	8.13243408951563	4001.4652014652	128.0	13.2395837592582	11.3684602222991	-71.1450381679389	-18.4580152671756	55.0687022900763	-0.664545454545455	-0.143636363636364	0.0397959183673469	101.281936331265	33.584453162484	
1501504436198.97	2.92771084337349	2.57831325301205	11.1927710843374	3.18822808093194	4.81667688534641	9.27038626609442	4001.4652014652	128.0	13.2852367502733	11.4080309559541	-86.1679389312977	-3.54198473282443	62.4427480916031	-0.682727272727273	-0.122727272727273	0.0448979591836735	101.275982908814	33.584453162484	
1501504436218.51	2.27710843373494	2.90361445783133	10.7469879518072	2.40343347639485	3.67872470876763	10.2906192519926	4005.86080586081	128.0	13.2348718128449	11.4638050155407	-190.12213740458	99.4198473282443	104.167938931298	-0.690909090909091	-0.104545454545455	0.0397959183673469	101.275982908814	33.584453162484	
1501504436238.04	1.96385542168675	4.31325301204819	8.75903614457831	2.09932556713673	4.51256897608829	9.53525444512569	4002.9304029304	128.0	13.3358901742169	11.4732289083674	-185.63358778626	49.4809160305344	105.740458015267	-0.706363636363636	-0.0627272727272727	0.0255102040816327	101.275982908814	33.584453162484	
1501504436257.57	2.25301204819277	4.48192771084337	8.28915662650602	2.37400367872471	5.16002452483139	8.7504598405886	3992.67399267399	128.0	13.2700912082304	11.566337931117	-54.8549618320611	29.2671755725191	50.4427480916031	-0.719090909090909	-0.0527272727272727	0.0244897959183673	101.278959619649	33.584453162484	
1501504436277.1	3.53012048192771	3.3855421686747	7.19277108433735	3.07050889025138	4.43408951563458	7.69098712446352	4002.9304029304	128.0	13.3663495421032	11.5992734749246	35.2824427480916	-15.2671755725191	-14.0610687022901	-0.738181818181818	-0.0518181818181818	0.026530612244898	101.275982908814	33.584453162484	
1501504436296.63	3.56626506024096	3.60240963855422	8.49397590361446	3.7277743715512	4.16922133660331	7.13182096873084	4002.9304029304	128.0	13.2640329914132	11.6690631710366	93.7251908396947	-86.4885496183206	-26.3206106870229	-0.753636363636364	-0.0572727272727273	0.0397959183673469	101.278959619649	33.584453162484	
1501504436316.16	-0.987951807228916	1.26506024096386	-1.1566265060241	9.23114653586757	10.2219497240956	6.26854690374004	4001.4652014652	128.0	13.3712057317741	11.7003158768395	-215.389312977099	153.099236641221	33.5267175572519	-0.776363636363636	-0.06	0.0540816326530612	101.273006198759	33.584453162484	
1501504436335.69	3.20481927710843	2.42168674698795	9.60240963855422	5.46413243408952	7.06315144083384	2.92335990190067	4002.9304029304	128.0	13.3978907344211	11.7338283936773	-141.69465648855	79.5725190839695	7.25190839694657	-0.780909090909091	-0.0563636363636364	0.0428571428571429	101.287889756837	33.584453162484	
1501504436355.22	4.73493975903615	0.843373493975904	9.36144578313253	3.47271612507664	4.03188228080932	8.70141017780503	3997.0695970696	128.0	13.4119544520324	11.7905159938951	-88.3664122137405	111.81679389313	-3.69465648854962	-0.779090909090909	-0.0490909090909091	0.0163265306122449	101.281936331265	33.584453162484	
1501504436374.76	3.8433734939759	1.56626506024096	9.45783132530121	4.67933782955242	2.71735131820969	9.09380748007357	4002.9304029304	128.0	13.4550351049545	11.8175375641431	-46.3664122137405	80.2900763358779	10.030534351145	-0.779090909090909	-0.0481818181818182	0.00510204081632653	101.281936331265	33.584453162484	
1501504436394.29	4.6144578313253	1.34939759036145	8.97590361445783	4.20846106683017	2.50153280196199	9.13304721030043	4004.3956043956	128.0	13.4390000628233	11.8752589077066	-26.0152671755725	59.7251908396947	22.412213740458	-0.777272727272727	-0.0472727272727273	-0.00510204081632653	101.275982908814	33.584453162484	
1501504436413.82	3.81927710843374	2.01204819277108	8.83132530120482	3.79644389944819	2.85469037400368	8.59350091968118	3975.09157509157	128.0	13.4900862165395	11.8880244359999	-26.4732824427481	69.4198473282443	21.3587786259542	-0.760909090909091	-0.00909090909090909	-0.00306122448979592	101.281936331265	33.584453162484	
1501504436433.35	3.03614457831325	1.34939759036145	10.6385542168675	3.14898835070509	2.45248313917842	10.2121397915389	3972.16117216117	128.0	13.5477113979313	11.8870147331971	-55.1297709923664	65.9083969465649	-11.6641221374046	-0.760909090909091	-0.00727272727272727	-0.00918367346938776	101.278959619649	33.584453162484	
1501504436452.88	1.25301204819277	1.53012048192771	9.68674698795181	2.34457388105457	2.20723482526058	9.33905579399142	3973.62637362637	128.0	13.7195772393041	11.9200464391764	-17.9083969465649	31.5114503816794	19.6793893129771	-0.757272727272727	-0.00636363636363637	-0.0224489795918367	101.286937394564	33.6133323302513	
1501504436472.41	2.24096385542169	0.156626506024096	9.43373493975904	1.82464745554874	1.09871244635193	8.97608828939301	3966.30036630037	128.0	13.7734280554566	11.9273307236827	-29.8167938931298	24.1374045801527	32.2900763358779	-0.751818181818182	-0.00181818181818182	-0.023469387755102	101.286937394564	33.6133323302513	
1501504436491.94	0.614457831325301	-1.89156626506024	8.79518072289157	1.24586143470264	-0.10790925812385	8.98589822194972	3975.09157509157	128.0	14.3181627176002	11.9924805950102	-34.1526717557252	65.6793893129771	56.0458015267176	-0.75	0.00727272727272727	-0.0387755102040816	101.289914288834	33.6133323302513	
1501504436511.47	-2.71084337349398	-2.36144578313253	6.53012048192771	-0.77498467198038	-0.755364806866953	6.22930717351318	3966.30036630037	128.0	14.4783688956542	12.0232284494116	-83.8931297709924	161.145038167939	70.412213740458	-0.748181818181818	0.0109090909090909	-0.0581632653061225	101.289914288834	33.6133323302513	
1501504436531.01	0.963855421686747	2.73493975903614	5.16867469879518	1.01042305334151	0.951563458001226	8.77007970570202	4000.0	128.0	15.5382202710573	12.0831615229243	-120.320610687023	500.274809160305	18.2595419847328	-0.732727272727273	0.00545454545454546	-0.175510204081633	101.295868079717	33.6133323302513	
1501504436550.54	4.42168674698795	4.12048192771084	3.60240963855422	2.55058246474555	1.63825873697118	1.65787860208461	4001.4652014652	128.0	15.4856676442227	12.1858146412152	-24.9007633587786	-244.625954198473	111.038167938931	-0.733636363636364	0.0463636363636364	-0.211224489795918	101.289914288834	33.6133323302513	
1501504436570.07	-1.85542168674699	1.48192771084337	8.01204819277108	1.65787860208461	3.20784794604537	8.12262415695892	4002.9304029304	128.0	16.4255807509717	12.2828663130045	-5.57251908396947	-20.3053435114504	53.4198473282443	-0.751818181818182	0.0609090909090909	-0.209183673469388	101.283960501074	33.6133323302513	
1501504436589.6	0.301204819277108	-3.20481927710843	10.5301204819277	0.353157572041692	0.490496627835684	8.9662783568363	4005.86080586081	128.0	16.3219900515068	12.331909020572	2.6412213740458	20.2748091603053	-44.9465648854962	-0.75	0.0527272727272727	-0.209183673469388	101.286937394564	33.6133323302513	
1501504436609.13	0.325301204819277	-1.10843373493976	9.87951807228916	0.470876762722256	-0.578786020846107	9.20171673819742	4002.9304029304	128.0	15.9202244981398	12.390135215537	-0.290076335877863	-9.74045801526717	-5.95419847328244	-0.749090909090909	0.0409090909090909	-0.209183673469388	101.278006716436	33.6133323302513	
1501504436628.66	-0.253012048192771	-0.975903614457831	10.1566265060241	0.127529123237278	-0.441446965052115	9.79031269160024	4002.9304029304	128.0	15.3595749965797	12.4278067463009	1.02290076335878	3.70992366412214	9.75572519083969	-0.750909090909091	0.0418181818181818	-0.206122448979592	101.283960501074	33.6133323302513	
1501504436648.19	1.32530120481928	-0.168674698795181	10.0722891566265	0.794604537093807	0.235438381361128	9.78050275904353	4002.9304029304	128.0	15.0759687116904	12.461872195626	1.00763358778626	0.381679389312977	-5.34351145038168	-0.754545454545455	0.0436363636363636	-0.211224489795918	101.283960501074	33.6133323302513	
1501504436667.72	0.469879518072289	-0.481927710843373	10.0361445783133	0.313917841814837	0.127529123237278	9.80012262415696	4002.9304029304	128.0	15.1036153360544	12.5248584180902	0.885496183206107	0.900763358778626	0.0763358778625954	-0.753636363636364	0.04	-0.210204081632653	101.278006716436	33.6133323302513	
1501504436687.26	0.457831325301205	-0.506024096385542	10.0602409638554	0.304107909258124	0.0980993255671367	9.80012262415696	4002.9304029304	128.0	14.6623752112041	12.549668258389	0.748091603053435	0.580152671755725	0.106870229007634	-0.751818181818182	0.0427272727272727	-0.209183673469388	101.280983608364	33.6133323302513	
1501504436706.79	0.445783132530121	-0.493975903614458	10.0481927710843	0.343347639484979	0.10790925812385	9.81974248927039	4002.9304029304	128.0	14.2688796046034	12.5627703542833	0.717557251908397	0.732824427480916	0.396946564885496	-0.75	0.0409090909090909	-0.209183673469388	101.280983608364	33.6133323302513	
1501504436726.32	0.457831325301205	-0.518072289156627	10.0602409638554	0.304107909258124	0.088289393010423	9.80012262415696	4002.9304029304	128.0	13.9642378446545	12.6160201568628	0.809160305343512	0.732824427480916	0.0763358778625954	-0.750909090909091	0.0436363636363636	-0.209183673469388	101.286937394564	33.6133323302513	
1501504436745.85	0.445783132530121	-0.506024096385542	10.0361445783133	0.313917841814837	0.0686695278969957	9.78050275904353	4001.4652014652	128.0	13.802901761083	12.6646301346576	0.748091603053435	0.687022900763359	0.137404580152672	-0.753636363636364	0.0436363636363636	-0.209183673469388	101.295868079717	33.6133323302513	
1501504436765.38	0.457831325301205	-0.493975903614458	10.0722891566265	0.284488044144696	0.088289393010423	9.81974248927039	4002.9304029304	128.0	13.5041980152366	12.6814585147053	0.748091603053435	0.67175572519084	0.122137404580153	-0.754545454545455	0.0436363636363636	-0.208163265306122	101.289914288834	33.6133323302513	
1501504436784.91	0.445783132530121	-0.493975903614458	10.0240963855422	0.274678111587983	0.0980993255671367	9.80012262415696	4002.9304029304	128.0	13.1964069441645	12.6919401914207	0.687022900763359	0.732824427480916	-0.0763358778625954	-0.751818181818182	0.0445454545454546	-0.209183673469388	101.283960501074	33.6133323302513	
1501504436804.44	0.433734939759036	-0.518072289156627	10.0602409638554	0.304107909258124	0.088289393010423	9.80993255671367	4002.9304029304	128.0	13.1489989935158	12.734636195656	0.763358778625954	0.854961832061069	0.0152671755725191	-0.754545454545455	0.0436363636363636	-0.210204081632653	101.283960501074	33.6133323302513	
1501504436823.97	0.445783132530121	-0.506024096385542	10.0481927710843	0.284488044144696	0.127529123237278	9.84917228694053	4002.9304029304	128.0	13.1519319397527	12.742353209935	0.595419847328244	0.641221374045801	0.213740458015267	-0.751818181818182	0.0418181818181818	-0.210204081632653	101.283960501074	33.6133323302513	
1501504436843.51	0.445783132530121	-0.493975903614458	10.0602409638554	0.313917841814837	0.10790925812385	9.80012262415696	3997.0695970696	128.0	13.3730087724935	12.7781736188937	0.763358778625954	0.717557251908397	0.137404580152672	-0.755454545454546	0.0418181818181818	-0.209183673469388	101.286937394564	33.6133323302513	
1501504436863.04	0.445783132530121	-0.481927710843373	10.0481927710843	0.304107909258124	0.0392397302268547	9.79031269160024	3992.67399267399	128.0	13.4413800765729	12.7887995388666	0.793893129770992	0.809160305343512	0.229007633587786	-0.752727272727273	0.0418181818181818	-0.208163265306122	101.289914288834	33.6133323302513	
1501504436882.57	0.445783132530121	-0.506024096385542	10.0240963855422	0.304107909258124	0.117719190680564	9.80012262415696	3997.0695970696	128.0	13.6439216507183	12.8278173400343	0.870229007633588	0.732824427480916	0.152671755725191	-0.75	0.0418181818181818	-0.209183673469388	101.283960501074	33.6133323302513	
1501504436902.1	0.445783132530121	-0.506024096385542	10.0361445783133	0.284488044144696	0.10790925812385	9.78050275904353	4002.9304029304	128.0	13.6753907214074	12.8406069088706	0.641221374045801	0.82442748091603	-0.0763358778625954	-0.754545454545455	0.0436363636363636	-0.211224489795918	101.286937394564	33.6133323302513	
1501504436921.63	0.445783132530121	-0.506024096385542	10.0361445783133	0.274678111587983	0.10790925812385	9.83936235438381	3997.0695970696	128.0	13.739530889932	12.8835433185351	0.977099236641221	0.595419847328244	0.106870229007634	-0.751818181818182	0.0418181818181818	-0.211224489795918	101.283960501074	33.6133323302513	
1501504436941.16	0.433734939759036	-0.518072289156627	10.0481927710843	0.274678111587983	0.10790925812385	9.80993255671367	4002.9304029304	128.0	13.7421513091109	12.8495499908388	0.83969465648855	0.809160305343512	-0.106870229007634	-0.754545454545455	0.0409090909090909	-0.208163265306122	101.286937394564	33.6133323302513	
1501504436960.69	0.433734939759036	-0.518072289156627	10.0481927710843	0.264868179031269	0.10790925812385	9.80993255671367	4001.4652014652	128.0	13.8033104503128	12.9149162270526	0.687022900763359	0.763358778625954	0.244274809160305	-0.752727272727273	0.0427272727272727	-0.208163265306122	101.289914288834	33.6133323302513	
1501504436980.22	0.457831325301205	-0.493975903614458	10.0481927710843	0.304107909258124	0.10790925812385	9.79031269160024	4002.9304029304	128.0	13.797132030781	12.9282346878332	0.82442748091603	0.610687022900763	0.0458015267175573	-0.750909090909091	0.0436363636363636	-0.209183673469388	101.286937394564	33.6133323302513	
1501504436999.76	0.457831325301205	-0.481927710843373	10.0481927710843	0.313917841814837	0.117719190680564	9.79031269160024	4002.9304029304	128.0	13.855334185203	12.9573958664015	0.656488549618321	0.625954198473282	0.0610687022900763	-0.751818181818182	0.0436363636363636	-0.209183673469388	101.283960501074	33.6133323302513	
1501504437019.29	0.457831325301205	-0.493975903614458	10.0481927710843	0.323727774371551	0.088289393010423	9.83936235438381	4002.9304029304	128.0	13.8499250630448	12.9810036795541	0.809160305343512	0.748091603053435	0.16793893129771	-0.754545454545455	0.0472727272727273	-0.205102040816327	101.283960501074	33.6133323302513	
1501504437038.82	0.421686746987952	-0.493975903614458	10.0481927710843	0.29429797670141	0.0980993255671367	9.80993255671367	4002.9304029304	128.0	13.9033191088818	13.0055971549667	0.763358778625954	0.748091603053435	0.0458015267175573	-0.753636363636364	0.0418181818181818	-0.210204081632653	101.289914288834	33.6133323302513	
1501504437058.35	0.445783132530121	-0.506024096385542	10.0602409638554	0.284488044144696	0.0784794604537094	9.80993255671367	4002.9304029304	128.0	13.8909622698183	13.0253825217941	0.900763358778626	0.763358778625954	0.106870229007634	-0.751818181818182	0.0436363636363636	-0.210204081632653	101.278006716436	33.6133323302513	
1501504437077.88	0.445783132530121	-0.493975903614458	10.0481927710843	0.29429797670141	0.0784794604537094	9.80993255671367	4002.9304029304	128.0	13.9472171402634	13.0480287132297	0.732824427480916	0.67175572519084	0.152671755725191	-0.750909090909091	0.0436363636363636	-0.210204081632653	101.283960501074	33.6133323302513	
1501504437097.41	0.433734939759036	-0.506024096385542	10.0481927710843	0.323727774371551	0.0980993255671367	9.79031269160024	4002.9304029304	128.0	13.9312061386752	13.0656985122798	0.793893129770992	0.809160305343512	0.0152671755725191	-0.750909090909091	0.0427272727272727	-0.208163265306122	101.278006716436	33.6133323302513	
1501504437116.94	0.445783132530121	-0.506024096385542	10.0602409638554	0.304107909258124	0.0980993255671367	9.80993255671367	4002.9304029304	128.0	13.982075927505	13.0881283388291	0.778625954198473	0.564885496183206	-0.106870229007634	-0.751818181818182	0.0445454545454546	-0.210204081632653	101.278006716436	33.6133323302513	
1501504437136.47	0.469879518072289	-0.481927710843373	10.0481927710843	0.333537706928265	0.0784794604537094	9.81974248927039	4002.9304029304	128.0	14.0437880011942	13.1136113143299	0.656488549618321	0.732824427480916	0.229007633587786	-0.751818181818182	0.0436363636363636	-0.210204081632653	101.278006716436	33.6133323302513	
1501504437156.01	0.457831325301205	-0.506024096385542	10.0481927710843	0.29429797670141	0.10790925812385	9.79031269160024	4002.9304029304	128.0	14.0159009714009	13.1247420857043	0.748091603053435	0.763358778625954	0.0305343511450382	-0.753636363636364	0.0427272727272727	-0.210204081632653	101.275029825287	33.6133323302513	
1501504437175.54	0.445783132530121	-0.506024096385542	10.0481927710843	0.29429797670141	0.0980993255671367	9.80993255671367	4002.9304029304	128.0	14.0728770581337	13.1247180451613	0.687022900763359	0.549618320610687	0.0	-0.75	0.0418181818181818	-0.212244897959184	101.278006716436	33.6133323302513	
1501504437195.07	0.433734939759036	-0.506024096385542	10.0481927710843	0.255058246474555	0.088289393010423	9.8295524218271	4002.9304029304	128.0	14.0437639606512	13.1724144823251	0.885496183206107	0.763358778625954	0.274809160305344	-0.751818181818182	0.0427272727272727	-0.209183673469388	101.283960501074	33.6133323302513	
1501504437214.6	0.457831325301205	-0.493975903614458	10.0481927710843	0.284488044144696	0.10790925812385	9.80993255671367	4002.9304029304	128.0	14.1019180339874	13.2014314176359	0.717557251908397	0.732824427480916	0.0	-0.752727272727273	0.0436363636363636	-0.208163265306122	101.280983608364	33.6133323302513	
1501504437234.13	0.445783132530121	-0.493975903614458	10.0481927710843	0.255058246474555	0.117719190680564	9.77069282648682	4002.9304029304	128.0	14.070857652528	13.2153028109037	0.763358778625954	0.595419847328244	0.0305343511450382	-0.753636363636364	0.0445454545454546	-0.210204081632653	101.283960501074	33.6133323302513	
1501504437253.66	0.457831325301205	-0.481927710843373	10.0481927710843	0.29429797670141	0.117719190680564	9.80993255671367	4001.4652014652	128.0	14.128122225776	13.2393193132861	0.870229007633588	0.732824427480916	-0.0152671755725191	-0.75	0.0427272727272727	-0.208163265306122	101.280983608364	33.6133323302513	
1501504437273.19	0.445783132530121	-0.506024096385542	10.0481927710843	0.343347639484979	0.117719190680564	9.83936235438381	4002.9304029304	128.0	14.1286991988062	13.257662247538	0.82442748091603	0.717557251908397	0.122137404580153	-0.752727272727273	0.0427272727272727	-0.210204081632653	101.283960501074	33.6133323302513	
1501504437292.72	0.457831325301205	-0.493975903614458	10.0481927710843	0.304107909258124	0.127529123237278	9.85898221949724	4001.4652014652	128.0	14.14870093052	13.2704277758314	0.732824427480916	0.763358778625954	0.0152671755725191	-0.75	0.0418181818181818	-0.209183673469388	101.283960501074	33.6133323302513	
1501504437312.26	0.457831325301205	-0.493975903614458	10.0481927710843	0.284488044144696	0.0980993255671367	9.80012262415696	4002.9304029304	128.0	14.1489894170351	13.2918238590348	0.916030534351145	0.702290076335878	0.152671755725191	-0.752727272727273	0.0427272727272727	-0.210204081632653	101.283960501074	33.6133323302513	
1501504437331.79	0.445783132530121	-0.506024096385542	10.0481927710843	0.333537706928265	0.088289393010423	9.80993255671367	3995.6043956044	128.0	14.1643753645073	13.3012958329474	0.809160305343512	0.488549618320611	0.0	-0.750909090909091	0.0409090909090909	-0.210204081632653	101.289914288834	33.6133323302513	
1501504437351.32	0.445783132530121	-0.506024096385542	10.0361445783133	0.313917841814837	0.117719190680564	9.77069282648682	4002.9304029304	128.0	14.1654091078531	13.3261537543321	0.854961832061069	0.595419847328244	-0.0305343511450382	-0.751818181818182	0.0427272727272727	-0.212244897959184	101.286937394564	33.6133323302513	
1501504437370.85	0.457831325301205	-0.481927710843373	10.0481927710843	0.323727774371551	0.0784794604537094	9.81974248927039	3995.6043956044	128.0	14.1835837583046	13.3472132699346	0.748091603053435	0.549618320610687	0.106870229007634	-0.751818181818182	0.0427272727272727	-0.209183673469388	101.286937394564	33.6133323302513	
1501504437390.38	0.445783132530121	-0.481927710843373	10.0481927710843	0.333537706928265	0.0980993255671367	9.80993255671367	4001.4652014652	128.0	14.1833193123324	13.3597624333416	0.854961832061069	0.610687022900763	0.0152671755725191	-0.751818181818182	0.0418181818181818	-0.210204081632653	101.283960501074	33.6133323302513	
1501504437409.91	0.433734939759036	-0.506024096385542	10.0481927710843	0.343347639484979	0.0980993255671367	9.80012262415696	3995.6043956044	128.0	14.1981282867744	13.3503625810579	0.748091603053435	0.809160305343512	0.0916030534351145	-0.745454545454546	0.0427272727272727	-0.205102040816327	101.295868079717	33.6133323302513	
1501504437429.44	0.445783132530121	-0.518072289156627	10.0481927710843	0.29429797670141	0.0980993255671367	9.79031269160024	4001.4652014652	128.0	14.2004602194381	13.400823680658	0.687022900763359	0.702290076335878	0.122137404580153	-0.750909090909091	0.0409090909090909	-0.207142857142857	101.289914288834	33.6133323302513	
1501504437448.97	0.433734939759036	-0.506024096385542	10.0481927710843	0.245248313917842	0.0980993255671367	9.84917228694053	4001.4652014652	128.0	14.1533647958475	13.3983955858225	0.82442748091603	0.717557251908397	0.0152671755725191	-0.751818181818182	0.0445454545454546	-0.210204081632653	101.289914288834	33.6133323302513	
1501504437468.51	0.433734939759036	-0.506024096385542	10.0361445783133	0.313917841814837	0.10790925812385	9.79031269160024	3991.20879120879	128.0	14.2193320456344	13.4324850756906	0.763358778625954	0.687022900763359	-0.0152671755725191	-0.752727272727273	0.0436363636363636	-0.209183673469388	101.286937394564	33.6133323302513	
1501504437488.04	0.433734939759036	-0.518072289156627	10.0481927710843	0.323727774371551	0.10790925812385	9.80012262415696	4001.4652014652	128.0	14.1738713789628	13.4351295354123	0.748091603053435	0.610687022900763	-0.244274809160305	-0.747272727272727	0.0445454545454546	-0.210204081632653	101.286937394564	33.6133323302513	
1501504437507.57	0.421686746987952	-0.506024096385542	10.0481927710843	0.29429797670141	0.0980993255671367	9.86879215205395	4002.9304029304	128.0	14.2395741827775	13.4620549434886	0.656488549618321	0.534351145038168	0.0763358778625954	-0.752727272727273	0.0436363636363636	-0.212244897959184	101.286937394564	33.6133323302513	
1501504437527.1	0.445783132530121	-0.493975903614458	10.0602409638554	0.29429797670141	0.137339055793991	9.79031269160024	4001.4652014652	128.0	14.1950751378228	13.4710461065427	0.687022900763359	0.687022900763359	0.0916030534351145	-0.752727272727273	0.0418181818181818	-0.209183673469388	101.283960501074	33.6133323302513	
1501504437546.63	0.457831325301205	-0.518072289156627	10.0481927710843	0.284488044144696	0.0784794604537094	9.77069282648682	4000.0	128.0	14.26063369838	13.5036691232923	0.870229007633588	0.67175572519084	-0.0763358778625954	-0.753636363636364	0.0427272727272727	-0.207142857142857	101.295868079717	33.6133323302513	
1501504437566.16	0.445783132530121	-0.481927710843373	10.0481927710843	0.29429797670141	0.10790925812385	9.78050275904353	4002.9304029304	128.0	14.2121439232998	13.5009525419417	0.778625954198473	0.732824427480916	0.122137404580153	-0.750909090909091	0.0445454545454546	-0.209183673469388	101.286937394564	33.6133323302513	
1501504437585.69	0.445783132530121	-0.506024096385542	10.0481927710843	0.284488044144696	0.088289393010423	9.81974248927039	4001.4652014652	128.0	14.1903151103236	13.5032604340625	0.717557251908397	0.564885496183206	0.259541984732824	-0.750909090909091	0.0427272727272727	-0.213265306122449	101.283960501074	33.6133323302513	
1501504437605.22	0.433734939759036	-0.506024096385542	10.0361445783133	0.284488044144696	0.137339055793991	9.80993255671367	4001.4652014652	128.0	14.2313042360112	13.5417012622	0.748091603053435	0.732824427480916	0.0152671755725191	-0.750909090909091	0.0418181818181818	-0.208163265306122	101.286937394564	33.6133323302513	
1501504437624.76	0.481927710843373	-0.493975903614458	10.0481927710843	0.323727774371551	0.0980993255671367	9.80993255671367	4001.4652014652	128.0	14.2051240847656	13.5301858421388	0.625954198473282	0.717557251908397	0.0305343511450382	-0.752727272727273	0.0418181818181818	-0.209183673469388	101.283960501074	33.6133323302513	
1501504437644.29	0.433734939759036	-0.506024096385542	10.0240963855422	0.304107909258124	0.10790925812385	9.80012262415696	4001.4652014652	128.0	14.2419301559842	13.51951184108	0.687022900763359	0.82442748091603	-0.0458015267175573	-0.75	0.0427272727272727	-0.208163265306122	101.289914288834	33.6133323302513	
1501504437663.82	0.445783132530121	-0.506024096385542	10.0722891566265	0.29429797670141	0.0490496627835684	9.75107296137339	4001.4652014652	128.0	14.2189954780335	13.5674246431301	0.809160305343512	0.702290076335878	0.0763358778625954	-0.751818181818182	0.0409090909090909	-0.208163265306122	101.283960501074	33.6133323302513	
1501504437683.35	0.445783132530121	-0.518072289156627	10.0843373493976	0.274678111587983	0.088289393010423	9.78050275904353	4002.9304029304	128.0	14.258061360287	13.5925950915728	0.885496183206107	0.656488549618321	0.198473282442748	-0.751818181818182	0.0427272727272727	-0.210204081632653	101.283960501074	33.6133323302513	
1501504437702.88	0.445783132530121	-0.506024096385542	10.0481927710843	0.274678111587983	0.058859595340282	9.75107296137339	4001.4652014652	128.0	14.231063830582	13.596706024413	0.748091603053435	0.656488549618321	0.0152671755725191	-0.750909090909091	0.0418181818181818	-0.209183673469388	101.289914288834	33.6133323302513	
1501504437722.41	0.433734939759036	-0.518072289156627	10.1084337349398	0.274678111587983	0.0490496627835684	9.80012262415696	3989.74358974359	128.0	14.2697210236058	13.6308916764528	0.702290076335878	0.67175572519084	0.122137404580153	-0.750909090909091	0.0436363636363636	-0.212244897959184	101.283960501074	33.6133323302513	
1501504437741.94	0.445783132530121	-0.530120481927711	10.0843373493976	0.255058246474555	0.0686695278969957	9.80012262415696	4001.4652014652	128.0	14.2411848991535	13.6193041347628	0.82442748091603	0.564885496183206	0.16793893129771	-0.751818181818182	0.0427272727272727	-0.210204081632653	101.283960501074	33.6133323302513	
1501504437761.47	0.445783132530121	-0.506024096385542	10.0120481927711	0.274678111587983	0.0686695278969957	9.80993255671367	4001.4652014652	128.0	14.2806354300939	13.6354834201515	0.946564885496183	0.793893129770992	0.0916030534351145	-0.749090909090909	0.0418181818181818	-0.209183673469388	101.283960501074	33.6133323302513	
1501504437781.01	0.469879518072289	-0.493975903614458	10.1566265060241	0.304107909258124	0.0980993255671367	9.84917228694053	4001.4652014652	128.0	14.2545754815629	13.6476960159575	0.916030534351145	0.763358778625954	0.0610687022900763	-0.752727272727273	0.0436363636363636	-0.211224489795918	101.283960501074	33.6133323302513	
1501504437800.54	0.469879518072289	-0.469879518072289	10.0240963855422	0.304107909258124	0.10790925812385	9.80012262415696	4001.4652014652	128.0	14.2943625801042	13.6637310580887	0.854961832061069	0.702290076335878	0.229007633587786	-0.750909090909091	0.0427272727272727	-0.209183673469388	101.278006716436	33.6133323302513	
1501504437820.07	0.457831325301205	-0.493975903614458	10.0843373493976	0.284488044144696	0.127529123237278	9.79031269160024	3997.0695970696	128.0	14.27674086214	13.6835885465449	0.610687022900763	0.610687022900763	0.122137404580153	-0.752727272727273	0.0418181818181818	-0.208163265306122	101.283960501074	33.6133323302513	
1501504437839.6	0.445783132530121	-0.518072289156627	9.98795180722892	0.313917841814837	0.117719190680564	9.77069282648682	4001.4652014652	128.0	14.317273217512	13.6829634924289	0.702290076335878	0.900763358778626	0.0916030534351145	-0.753636363636364	0.0418181818181818	-0.212244897959184	101.286937394564	33.6133323302513	
1501504437859.13	0.445783132530121	-0.506024096385542	10.0843373493976	0.29429797670141	0.0784794604537094	9.83936235438381	3998.5347985348	128.0	14.2970551209118	13.7116679006816	0.83969465648855	0.610687022900763	0.0916030534351145	-0.749090909090909	0.0427272727272727	-0.212244897959184	101.280983608364	33.6133323302513	
1501504437878.66	0.421686746987952	-0.493975903614458	10.0120481927711	0.284488044144696	0.088289393010423	9.80012262415696	4002.9304029304	128.0	14.3311446107798	13.6806556003081	0.748091603053435	0.778625954198473	-0.0610687022900763	-0.751818181818182	0.0454545454545455	-0.206122448979592	101.286937394564	33.6133323302513	
1501504437898.19	0.457831325301205	-0.493975903614458	10.0602409638554	0.323727774371551	0.0980993255671367	9.80993255671367	3997.0695970696	128.0	14.3029690944714	13.7345064164606	0.763358778625954	0.778625954198473	0.122137404580153	-0.754545454545455	0.0436363636363636	-0.213265306122449	101.283960501074	33.6133323302513	
1501504437917.72	0.457831325301205	-0.493975903614458	10.0361445783133	0.304107909258124	0.0784794604537094	9.8295524218271	4002.9304029304	128.0	14.3379961655135	13.7422715118255	0.534351145038168	0.717557251908397	0.0458015267175573	-0.75	0.0418181818181818	-0.210204081632653	101.283960501074	33.6133323302513	
1501504437937.26	0.457831325301205	-0.518072289156627	10.0361445783133	0.333537706928265	0.117719190680564	9.79031269160024	4001.4652014652	128.0	14.3950443738752	13.7693652037023	0.748091603053435	0.580152671755725	0.0305343511450382	-0.752727272727273	0.0409090909090909	-0.211224489795918	101.283960501074	33.6133323302513	
1501504437956.79	0.457831325301205	-0.481927710843373	10.0481927710843	0.333537706928265	0.156958920907419	9.80012262415696	4001.4652014652	128.0	14.3404963819778	13.7723702715679	0.809160305343512	0.67175572519084	0.152671755725191	-0.75	0.0409090909090909	-0.210204081632653	101.283960501074	33.6133323302513	
1501504437976.32	0.445783132530121	-0.493975903614458	10.0481927710843	0.274678111587983	0.137339055793991	9.77069282648682	4001.4652014652	128.0	14.3978330768545	13.7975407200107	0.870229007633588	0.641221374045801	0.0610687022900763	-0.750909090909091	0.0409090909090909	-0.210204081632653	101.280983608364	33.6133323302513	
1501504437995.85	0.445783132530121	-0.518072289156627	10.0481927710843	0.264868179031269	0.0686695278969957	9.77069282648682	4001.4652014652	128.0	14.3438860985302	13.7962425306927	0.763358778625954	0.595419847328244	0.259541984732824	-0.752727272727273	0.0427272727272727	-0.208163265306122	101.278006716436	33.6133323302513	
1501504438015.38	0.445783132530121	-0.493975903614458	10.0481927710843	0.313917841814837	0.088289393010423	9.80012262415696	4001.4652014652	128.0	14.3958617523346	13.8155951677476	0.82442748091603	0.717557251908397	0.106870229007634	-0.75	0.0418181818181818	-0.210204081632653	101.286937394564	33.6133323302513	
1501504438034.91	0.445783132530121	-0.493975903614458	10.0602409638554	0.255058246474555	0.0980993255671367	9.78050275904353	4001.4652014652	128.0	14.3434293282146	13.8122054511951	0.778625954198473	0.67175572519084	0.274809160305344	-0.75	0.0409090909090909	-0.212244897959184	101.280983608364	33.6133323302513	
1501504438054.44	0.457831325301205	-0.493975903614458	10.0481927710843	0.274678111587983	0.088289393010423	9.81974248927039	4001.4652014652	128.0	14.4011266312353	13.8373518590949	0.83969465648855	0.732824427480916	0.122137404580153	-0.752727272727273	0.0436363636363636	-0.208163265306122	101.283960501074	33.6133323302513	
1501504438073.97	0.457831325301205	-0.469879518072289	10.0481927710843	0.304107909258124	0.117719190680564	9.80993255671367	4001.4652014652	128.0	14.4078339427114	13.853074374168	0.702290076335878	0.656488549618321	0.0458015267175573	-0.753636363636364	0.0418181818181818	-0.210204081632653	101.280983608364	33.6133323302513	
1501504438093.51	0.445783132530121	-0.506024096385542	10.0361445783133	0.274678111587983	0.088289393010423	9.79031269160024	4001.4652014652	128.0	14.4126180107536	13.8598057261871	0.82442748091603	0.717557251908397	0.137404580152672	-0.752727272727273	0.0409090909090909	-0.208163265306122	101.283960501074	33.6133323302513	
1501504438113.04	0.433734939759036	-0.506024096385542	10.0361445783133	0.29429797670141	0.10790925812385	9.83936235438381	4001.4652014652	128.0	14.4167770246796	13.843121589397	0.763358778625954	0.656488549618321	0.0152671755725191	-0.750909090909091	0.0427272727272727	-0.209183673469388	101.280983608364	33.6133323302513	
1501504438132.57	0.457831325301205	-0.506024096385542	10.0361445783133	0.284488044144696	0.0980993255671367	9.80993255671367	4001.4652014652	128.0	14.4214649305501	13.8837260663978	0.717557251908397	0.763358778625954	0.274809160305344	-0.754545454545455	0.0409090909090909	-0.212244897959184	101.283960501074	33.6133323302513	
1501504438152.1	0.457831325301205	-0.493975903614458	10.0481927710843	0.323727774371551	0.088289393010423	9.80993255671367	4001.4652014652	128.0	14.4301195260031	13.8964194730623	0.763358778625954	0.717557251908397	0.122137404580153	-0.751818181818182	0.0418181818181818	-0.212244897959184	101.283960501074	33.6133323302513	
1501504438171.63	0.445783132530121	-0.506024096385542	10.0481927710843	0.264868179031269	0.088289393010423	9.83936235438381	4001.4652014652	128.0	14.433076512783	13.9045932576569	0.854961832061069	0.687022900763359	0.229007633587786	-0.75	0.0409090909090909	-0.207142857142857	101.275029825287	33.6133323302513	
1501504438191.16	0.445783132530121	-0.493975903614458	10.0481927710843	0.274678111587983	0.0980993255671367	9.84917228694053	4001.4652014652	128.0	14.4416109055214	13.9204119349017	0.83969465648855	0.549618320610687	0.0610687022900763	-0.749090909090909	0.0409090909090909	-0.211224489795918	101.278006716436	33.6133323302513	
1501504438210.69	0.445783132530121	-0.518072289156627	10.0361445783133	0.274678111587983	0.0980993255671367	9.8295524218271	4001.4652014652	128.0	14.4432456624403	13.9237535703683	0.809160305343512	0.702290076335878	0.0610687022900763	-0.751818181818182	0.0436363636363636	-0.213265306122449	101.275029825287	33.6133323302513	
1501504438230.22	0.457831325301205	-0.506024096385542	10.0361445783133	0.284488044144696	0.058859595340282	9.81974248927039	4001.4652014652	128.0	14.4499289333736	13.9353411120583	0.809160305343512	0.564885496183206	0.0	-0.750909090909091	0.0454545454545455	-0.206122448979592	101.280983608364	33.6133323302513	
1501504438249.76	0.457831325301205	-0.493975903614458	10.0481927710843	0.29429797670141	0.0784794604537094	9.78050275904353	4001.4652014652	128.0	14.4000448068036	13.9355815174876	0.717557251908397	0.748091603053435	0.122137404580153	-0.748181818181818	0.0409090909090909	-0.210204081632653	101.280983608364	33.6133323302513	
1501504438269.29	0.445783132530121	-0.506024096385542	10.0602409638554	0.313917841814837	0.0980993255671367	9.83936235438381	3998.5347985348	128.0	14.457838271996	13.9626511688214	0.732824427480916	0.641221374045801	-0.0152671755725191	-0.753636363636364	0.0418181818181818	-0.211224489795918	101.278006716436	33.6133323302513	
1501504438288.82	0.469879518072289	-0.493975903614458	10.0602409638554	0.333537706928265	0.088289393010423	9.80993255671367	4002.9304029304	128.0	14.4089157671431	13.9628915742506	0.916030534351145	0.610687022900763	0.0305343511450382	-0.751818181818182	0.0436363636363636	-0.210204081632653	101.286937394564	33.6133323302513	
1501504438308.35	0.457831325301205	-0.493975903614458	10.0361445783133	0.284488044144696	0.117719190680564	9.80012262415696	3997.0695970696	128.0	14.4675746918807	13.9860666576306	0.763358778625954	0.67175572519084	0.244274809160305	-0.751818181818182	0.04	-0.212244897959184	101.278006716436	33.6133323302513	
1501504438327.88	0.457831325301205	-0.481927710843373	10.0361445783133	0.255058246474555	0.10790925812385	9.80012262415696	3995.6043956044	128.0	14.4197580520024	13.9884707119231	0.916030534351145	0.595419847328244	-0.0610687022900763	-0.752727272727273	0.0418181818181818	-0.210204081632653	101.278006716436	33.6133323302513	
1501504438347.41	0.445783132530121	-0.493975903614458	10.0361445783133	0.245248313917842	0.0784794604537094	9.8295524218271	3997.0695970696	128.0	14.4762533278767	13.9698152506131	0.83969465648855	0.67175572519084	-0.0916030534351145	-0.75	0.0436363636363636	-0.209183673469388	101.283960501074	33.6133323302513	
1501504438366.94	0.433734939759036	-0.506024096385542	10.0602409638554	0.264868179031269	0.0686695278969957	9.80993255671367	4002.9304029304	128.0	14.4271144581375	14.006837686718	0.854961832061069	0.67175572519084	0.0763358778625954	-0.752727272727273	0.0409090909090909	-0.209183673469388	101.280983608364	33.6133323302513	
1501504438386.47	0.445783132530121	-0.493975903614458	10.0481927710843	0.29429797670141	0.088289393010423	9.81974248927039	3997.0695970696	128.0	14.3922556708959	14.0013083618452	0.732824427480916	0.748091603053435	0.0610687022900763	-0.751818181818182	0.0427272727272727	-0.208163265306122	101.289914288834	33.6133323302513	
1501504438406.01	0.457831325301205	-0.493975903614458	10.0602409638554	0.284488044144696	0.0784794604537094	9.78050275904353	4002.9304029304	128.0	14.4363219860779	14.0299646890121	0.83969465648855	0.564885496183206	0.198473282442748	-0.753636363636364	0.0409090909090909	-0.208163265306122	101.286937394564	33.6133323302513	
1501504438425.54	0.445783132530121	-0.493975903614458	10.0361445783133	0.304107909258124	0.0980993255671367	9.79031269160024	4002.9304029304	128.0	14.4008621852631	14.0261903237729	0.931297709923664	0.595419847328244	-0.0305343511450382	-0.753636363636364	0.04	-0.209183673469388	101.283960501074	33.6133323302513	
1501504438445.07	0.433734939759036	-0.518072289156627	10.0361445783133	0.284488044144696	0.0980993255671367	9.79031269160024	4002.9304029304	128.0	14.445938203248	14.0426340551337	0.885496183206107	0.625954198473282	0.33587786259542	-0.751818181818182	0.0445454545454546	-0.209183673469388	101.283960501074	33.6133323302513	
1501504438464.6	0.433734939759036	-0.481927710843373	10.0481927710843	0.284488044144696	0.0980993255671367	9.77069282648682	4002.9304029304	128.0	14.4101658753752	14.0444130553102	0.656488549618321	0.748091603053435	0.152671755725191	-0.75	0.0418181818181818	-0.211224489795918	101.283960501074	33.6133323302513	
1501504438484.13	0.457831325301205	-0.493975903614458	10.0361445783133	0.255058246474555	0.137339055793991	9.78050275904353	4002.9304029304	128.0	14.4529099606963	14.0663861115439	0.900763358778626	0.67175572519084	0.0	-0.75	0.0472727272727273	-0.205102040816327	101.278006716436	33.6133323302513	
1501504438503.66	0.445783132530121	-0.493975903614458	10.0361445783133	0.284488044144696	0.10790925812385	9.79031269160024	4002.9304029304	128.0	14.4163923759928	14.062179016532	0.732824427480916	0.656488549618321	-0.0458015267175573	-0.753636363636364	0.0436363636363636	-0.209183673469388	101.286937394564	33.6133323302513	
1501504438523.19	0.445783132530121	-0.518072289156627	10.0361445783133	0.284488044144696	0.10790925812385	9.8295524218271	4002.9304029304	128.0	14.4617568804928	14.0873735055177	0.656488549618321	0.595419847328244	0.213740458015267	-0.752727272727273	0.0454545454545455	-0.209183673469388	101.289914288834	33.6133323302513	
1501504438542.72	0.433734939759036	-0.481927710843373	10.0481927710843	0.274678111587983	0.117719190680564	9.80993255671367	4002.9304029304	128.0	14.4228592820397	14.0777813288905	0.82442748091603	0.610687022900763	0.0610687022900763	-0.751818181818182	0.0454545454545455	-0.211224489795918	101.289914288834	33.6133323302513	
1501504438562.26	0.457831325301205	-0.506024096385542	10.0602409638554	0.323727774371551	0.127529123237278	9.7608828939301	4002.9304029304	128.0	14.4537513796987	14.0877341136615	0.793893129770992	0.732824427480916	0.122137404580153	-0.750909090909091	0.0418181818181818	-0.208163265306122	101.283960501074	33.6133323302513	
1501504438581.79	0.445783132530121	-0.506024096385542	10.0602409638554	0.284488044144696	0.10790925812385	9.81974248927039	3997.0695970696	128.0	14.4296146746017	14.0923739384461	0.67175572519084	0.549618320610687	0.122137404580153	-0.752727272727273	0.0427272727272727	-0.209183673469388	101.286937394564	33.6133323302513	
1501504438601.32	0.445783132530121	-0.506024096385542	10.0361445783133	0.274678111587983	0.058859595340282	9.83936235438381	4002.9304029304	128.0	14.4575738260238	14.091772924873	0.854961832061069	0.641221374045801	0.213740458015267	-0.751818181818182	0.0427272727272727	-0.211224489795918	101.278006716436	33.6133323302513	
1501504438620.85	0.433734939759036	-0.493975903614458	10.0602409638554	0.313917841814837	0.088289393010423	9.79031269160024	4002.9304029304	128.0	14.4343747021009	14.1106687916122	0.870229007633588	0.427480916030534	0.0916030534351145	-0.751818181818182	0.04	-0.208163265306122	101.280983608364	33.6133323302513	
1501504438640.38	0.445783132530121	-0.493975903614458	10.0481927710843	0.362967504598406	0.117719190680564	9.80012262415696	4002.9304029304	128.0	14.4637282050127	14.1194916708658	0.763358778625954	0.641221374045801	0.0458015267175573	-0.751818181818182	0.0436363636363636	-0.211224489795918	101.283960501074	33.6133323302513	
1501504438659.91	0.457831325301205	-0.506024096385542	10.0481927710843	0.304107909258124	0.10790925812385	9.80012262415696	4001.4652014652	128.0	14.4412262568346	14.1293723340081	0.67175572519084	0.748091603053435	-0.0763358778625954	-0.750909090909091	0.0436363636363636	-0.209183673469388	101.286937394564	33.6133323302513	
1501504438679.44	0.457831325301205	-0.493975903614458	10.0602409638554	0.255058246474555	0.10790925812385	9.80993255671367	4002.9304029304	128.0	14.4715894625492	14.1363921725423	0.82442748091603	0.641221374045801	0.0610687022900763	-0.750909090909091	0.0418181818181818	-0.210204081632653	101.286937394564	33.6133323302513	
1501504438698.97	0.445783132530121	-0.506024096385542	10.0481927710843	0.313917841814837	0.0980993255671367	9.73145309625996	4002.9304029304	128.0	14.4509145956335	14.1424503893594	0.687022900763359	0.641221374045801	0.152671755725191	-0.753636363636364	0.0418181818181818	-0.207142857142857	101.289914288834	33.6133323302513	
1501504438718.51	0.457831325301205	-0.481927710843373	10.0481927710843	0.304107909258124	0.088289393010423	9.80993255671367	4002.9304029304	128.0	14.4810373959189	14.1531003498753	0.763358778625954	0.687022900763359	0.106870229007634	-0.750909090909091	0.0427272727272727	-0.208163265306122	101.272052934919	33.6133323302513	
1501504438738.04	0.445783132530121	-0.506024096385542	10.0602409638554	0.264868179031269	0.0980993255671367	9.79031269160024	4002.9304029304	128.0	14.5402252126009	14.164784053737	0.793893129770992	0.656488549618321	0.183206106870229	-0.75	0.0454545454545455	-0.209183673469388	101.289914288834	33.6133323302513	
1501504438757.57	0.445783132530121	-0.518072289156627	10.0602409638554	0.29429797670141	0.0980993255671367	9.77069282648682	3998.5347985348	128.0	14.4861580315619	14.1681497297465	0.82442748091603	0.748091603053435	0.0458015267175573	-0.751818181818182	0.0436363636363636	-0.212244897959184	101.278006716436	33.6133323302513	
1501504438777.1	0.469879518072289	-0.506024096385542	10.0361445783133	0.323727774371551	0.088289393010423	9.77069282648682	4002.9304029304	128.0	14.5460189834458	14.1854348801098	0.717557251908397	0.778625954198473	0.0916030534351145	-0.751818181818182	0.0427272727272727	-0.209183673469388	101.283960501074	33.6133323302513	
1501504438796.63	0.445783132530121	-0.506024096385542	10.0602409638554	0.313917841814837	0.137339055793991	9.80012262415696	3997.0695970696	128.0	14.4917354375206	14.1808431364111	0.885496183206107	0.778625954198473	0.0763358778625954	-0.751818181818182	0.0427272727272727	-0.209183673469388	101.283960501074	33.6133323302513	
1501504438816.16	0.433734939759036	-0.506024096385542	10.0481927710843	0.29429797670141	0.0980993255671367	9.8295524218271	4002.9304029304	128.0	14.5477499025365	14.1600961478666	0.641221374045801	0.732824427480916	0.137404580152672	-0.751818181818182	0.0436363636363636	-0.207142857142857	101.289914288834	33.6133323302513	
1501504438835.69	0.445783132530121	-0.506024096385542	10.0481927710843	0.264868179031269	0.10790925812385	9.81974248927039	3998.5347985348	128.0	14.4918315996923	14.19759939483	0.885496183206107	0.625954198473282	0.0763358778625954	-0.752727272727273	0.0418181818181818	-0.209183673469388	101.280983608364	33.6133323302513	
1501504438855.22	0.445783132530121	-0.493975903614458	10.0481927710843	0.274678111587983	0.127529123237278	9.81974248927039	4002.9304029304	128.0	14.553375389581	14.2170962751424	0.748091603053435	0.763358778625954	0.0916030534351145	-0.75	0.0427272727272727	-0.208163265306122	101.278006716436	33.6133323302513	
1501504438874.76	0.457831325301205	-0.493975903614458	10.0481927710843	0.29429797670141	0.10790925812385	9.7608828939301	3997.0695970696	128.0	14.5659726340738	14.2268086544842	0.778625954198473	0.534351145038168	0.0610687022900763	-0.752727272727273	0.0436363636363636	-0.209183673469388	101.280983608364	33.6133323302513	
1501504438894.29	0.445783132530121	-0.506024096385542	10.0361445783133	0.313917841814837	0.10790925812385	9.77069282648682	4001.4652014652	128.0	14.5575824845929	14.234261222791	0.717557251908397	0.732824427480916	0.137404580152672	-0.750909090909091	0.0427272727272727	-0.210204081632653	101.295868079717	33.6133323302513	
1501504438913.82	0.457831325301205	-0.493975903614458	10.0602409638554	0.343347639484979	0.10790925812385	9.80012262415696	4001.4652014652	128.0	14.5707807426589	14.2449352238498	0.67175572519084	0.717557251908397	0.0916030534351145	-0.754545454545455	0.0409090909090909	-0.212244897959184	101.280983608364	33.6133323302513	
1501504438933.35	0.457831325301205	-0.506024096385542	10.0361445783133	0.29429797670141	0.117719190680564	9.79031269160024	3991.20879120879	128.0	14.5619338228624	14.2510896028387	0.793893129770992	0.717557251908397	0.198473282442748	-0.753636363636364	0.0427272727272727	-0.207142857142857	101.283960501074	33.6133323302513	
1501504438952.88	0.457831325301205	-0.506024096385542	10.0361445783133	0.29429797670141	0.10790925812385	9.8295524218271	4002.9304029304	128.0	14.5761177431883	14.2609221848951	0.717557251908397	0.717557251908397	0.137404580152672	-0.752727272727273	0.0418181818181818	-0.210204081632653	101.280983608364	33.6133323302513	
1501504438972.41	0.445783132530121	-0.493975903614458	10.0481927710843	0.29429797670141	0.117719190680564	9.80012262415696	3975.09157509157	128.0	14.5643619176978	14.2358238580812	0.702290076335878	0.778625954198473	-0.0152671755725191	-0.74	0.0745454545454545	-0.195918367346939	101.286937394564	33.6133323302513	
1501504438991.94	0.457831325301205	-0.506024096385542	10.0481927710843	0.323727774371551	0.088289393010423	9.83936235438381	3973.62637362637	128.0	14.575252283643	14.2086099634898	0.946564885496183	0.793893129770992	0.244274809160305	-0.738181818181818	0.0718181818181818	-0.195918367346939	101.286937394564	33.6133323302513	
1501504439011.47	0.445783132530121	-0.506024096385542	10.0361445783133	0.29429797670141	0.0686695278969957	9.80993255671367	3973.62637362637	128.0	14.5550822681287	14.2129853423022	0.809160305343512	0.534351145038168	0.0763358778625954	-0.738181818181818	0.0736363636363636	-0.195918367346939	101.283960501074	33.6133323302513	
1501504439031.01	0.457831325301205	-0.493975903614458	10.0481927710843	0.304107909258124	0.127529123237278	9.84917228694053	3973.62637362637	128.0	14.5690017424824	14.2251979381082	0.702290076335878	0.809160305343512	-0.0152671755725191	-0.736363636363636	0.0745454545454545	-0.194897959183673	101.289914288834	33.6133323302513	
1501504439050.54	0.433734939759036	-0.493975903614458	10.0481927710843	0.284488044144696	0.127529123237278	9.80012262415696	3973.62637362637	128.0	14.5175068995365	14.203393165675	0.900763358778626	0.641221374045801	0.0916030534351145	-0.74	0.0745454545454545	-0.197959183673469	101.286937394564	33.6133323302513	
1501504439070.07	0.445783132530121	-0.493975903614458	10.0361445783133	0.274678111587983	0.117719190680564	9.80012262415696	3973.62637362637	128.0	14.5651071745285	14.2402473179794	0.82442748091603	0.641221374045801	0.122137404580153	-0.74	0.0709090909090909	-0.197959183673469	101.278006716436	33.6133323302513	
1501504439089.6	0.469879518072289	-0.481927710843373	10.0602409638554	0.245248313917842	0.088289393010423	9.79031269160024	4001.4652014652	128.0	14.5145979938425	14.2357276959095	0.732824427480916	0.67175572519084	0.0610687022900763	-0.755454545454546	0.0454545454545455	-0.207142857142857	101.280983608364	33.6133323302513	
1501504439109.13	0.457831325301205	-0.518072289156627	10.0602409638554	0.274678111587983	0.10790925812385	9.80993255671367	4002.9304029304	128.0	14.5715981211183	14.324341137132	0.809160305343512	0.564885496183206	0.0916030534351145	-0.751818181818182	0.0436363636363636	-0.208163265306122	101.286937394564	33.6133323302513	
1501504439128.66	0.445783132530121	-0.493975903614458	10.0481927710843	0.264868179031269	0.0784794604537094	9.79031269160024	4002.9304029304	128.0	14.5278924140802	14.3244132587608	0.793893129770992	0.595419847328244	-0.0610687022900763	-0.754545454545455	0.0436363636363636	-0.209183673469388	101.278006716436	33.6133323302513	
1501504439148.19	0.445783132530121	-0.506024096385542	10.0361445783133	0.264868179031269	0.0686695278969957	9.81974248927039	4001.4652014652	128.0	14.5838347574673	14.3305435972067	0.931297709923664	0.732824427480916	0.0458015267175573	-0.750909090909091	0.0427272727272727	-0.210204081632653	101.283960501074	33.6133323302513	
1501504439167.72	0.445783132530121	-0.493975903614458	10.0602409638554	0.29429797670141	0.117719190680564	9.77069282648682	4002.9304029304	128.0	14.5409464288886	14.3346545300469	0.702290076335878	0.83969465648855	0.0305343511450382	-0.752727272727273	0.0427272727272727	-0.208163265306122	101.286937394564	33.6133323302513	
1501504439187.26	0.457831325301205	-0.481927710843373	10.0602409638554	0.313917841814837	0.0980993255671367	9.81974248927039	4002.9304029304	128.0	14.4967839515349	14.328187624	0.748091603053435	0.641221374045801	0.0152671755725191	-0.752727272727273	0.0409090909090909	-0.210204081632653	101.286937394564	33.6133323302513	
1501504439206.79	0.457831325301205	-0.493975903614458	10.0481927710843	0.313917841814837	0.0980993255671367	9.81974248927039	4002.9304029304	128.0	14.5510915380031	14.3430206389849	0.854961832061069	0.763358778625954	0.152671755725191	-0.752727272727273	0.04	-0.210204081632653	101.289914288834	33.6133323302513	
1501504439226.32	0.457831325301205	-0.481927710843373	10.0481927710843	0.29429797670141	0.0490496627835684	9.80012262415696	4002.9304029304	128.0	14.5049817766724	14.337515354655	0.656488549618321	0.656488549618321	-0.0305343511450382	-0.752727272727273	0.0445454545454546	-0.210204081632653	101.283960501074	33.6133323302513	
1501504439245.85	0.469879518072289	-0.518072289156627	10.0361445783133	0.274678111587983	0.088289393010423	9.83936235438381	3998.5347985348	128.0	14.5579911738226	14.3566035457377	0.885496183206107	0.748091603053435	0.0	-0.752727272727273	0.0445454545454546	-0.211224489795918	101.283960501074	33.6133323302513	
1501504439265.38	0.445783132530121	-0.506024096385542	10.0361445783133	0.29429797670141	0.0980993255671367	9.78050275904353	4001.4652014652	128.0	14.5139969802694	14.3545120185032	0.778625954198473	0.763358778625954	0.183206106870229	-0.749090909090909	0.0445454545454546	-0.211224489795918	101.283960501074	33.6133323302513	
1501504439284.91	0.433734939759036	-0.481927710843373	10.0361445783133	0.29429797670141	0.088289393010423	9.80012262415696	3995.6043956044	128.0	14.5615010930897	14.3310003675223	0.748091603053435	0.595419847328244	0.0763358778625954	-0.749090909090909	0.0445454545454546	-0.211224489795918	101.283960501074	33.6133323302513	
1501504439304.44	0.457831325301205	-0.493975903614458	10.0602409638554	0.313917841814837	0.0784794604537094	9.80012262415696	4001.4652014652	128.0	14.5147903181859	14.3595124514316	0.67175572519084	0.702290076335878	0.0916030534351145	-0.753636363636364	0.0409090909090909	-0.209183673469388	101.278006716436	33.6133323302513	
1501504439323.97	0.457831325301205	-0.518072289156627	10.0602409638554	0.304107909258124	0.0686695278969957	9.80012262415696	3998.5347985348	128.0	14.5670304179625	14.3824230888394	0.809160305343512	0.549618320610687	0.122137404580153	-0.754545454545455	0.0427272727272727	-0.212244897959184	101.283960501074	33.6133323302513	
1501504439343.51	0.469879518072289	-0.493975903614458	10.0481927710843	0.284488044144696	0.0784794604537094	9.81974248927039	4001.4652014652	128.0	14.5215457107479	14.3807642913776	0.854961832061069	0.687022900763359	0.16793893129771	-0.747272727272727	0.04	-0.208163265306122	101.275029825287	33.6133323302513	
1501504439363.04	0.445783132530121	-0.493975903614458	10.0481927710843	0.304107909258124	0.058859595340282	9.80012262415696	3997.0695970696	128.0	14.5405377396589	14.3785525614285	0.687022900763359	0.656488549618321	0.244274809160305	-0.751818181818182	0.0409090909090909	-0.210204081632653	101.280983608364	33.6133323302513	
1501504439382.57	0.433734939759036	-0.506024096385542	10.0481927710843	0.304107909258124	0.0784794604537094	9.77069282648682	4001.4652014652	128.0	14.527002913992	14.3942510359587	0.732824427480916	0.625954198473282	0.0610687022900763	-0.750909090909091	0.0409090909090909	-0.212244897959184	101.283960501074	33.6133323302513	
1501504439402.1	0.457831325301205	-0.506024096385542	10.0361445783133	0.284488044144696	0.0784794604537094	9.77069282648682	4001.4652014652	128.0	14.5457545374737	14.3942029548728	0.778625954198473	0.687022900763359	0.137404580152672	-0.750909090909091	0.0418181818181818	-0.208163265306122	101.278006716436	33.6133323302513	
1501504439421.63	0.433734939759036	-0.506024096385542	10.0602409638554	0.29429797670141	0.0686695278969957	9.78050275904353	4001.4652014652	128.0	14.5300079818576	14.4033383611844	0.687022900763359	0.732824427480916	0.0305343511450382	-0.750909090909091	0.0409090909090909	-0.211224489795918	101.275029825287	33.6133323302513	
1501504439441.16	0.457831325301205	-0.518072289156627	10.0361445783133	0.264868179031269	0.088289393010423	9.78050275904353	4001.4652014652	128.0	14.5493125378266	14.4050452397321	0.778625954198473	0.656488549618321	0.213740458015267	-0.750909090909091	0.0418181818181818	-0.210204081632653	101.27981556095	33.6306580522519	
1501504439460.69	0.433734939759036	-0.493975903614458	10.0361445783133	0.274678111587983	0.0784794604537094	9.80012262415696	4001.4652014652	128.0	14.5335659822106	14.4151903488466	0.763358778625954	0.67175572519084	0.259541984732824	-0.750909090909091	0.0409090909090909	-0.211224489795918	101.288746565479	33.6306580522519	
1501504439480.22	0.457831325301205	-0.506024096385542	10.0481927710843	0.264868179031269	0.088289393010423	9.80012262415696	4001.4652014652	128.0	14.5496491054276	14.414421051473	0.793893129770992	0.67175572519084	0.16793893129771	-0.753636363636364	0.0427272727272727	-0.209183673469388	101.29172356855	33.6306580522519	
1501504439499.76	0.433734939759036	-0.493975903614458	10.0481927710843	0.255058246474555	0.117719190680564	9.79031269160024	4001.4652014652	128.0	14.5362104419323	14.4226429171534	0.778625954198473	0.763358778625954	-0.0305343511450382	-0.750909090909091	0.0418181818181818	-0.209183673469388	101.29172356855	33.6306580522519	
1501504439519.29	0.457831325301205	-0.481927710843373	10.0361445783133	0.274678111587983	0.117719190680564	9.78050275904353	4001.4652014652	128.0	14.5512838623465	14.3869667514523	0.809160305343512	0.732824427480916	0.0763358778625954	-0.748181818181818	0.0409090909090909	-0.210204081632653	101.285769563189	33.6306580522519	
1501504439538.82	0.433734939759036	-0.506024096385542	10.0481927710843	0.304107909258124	0.088289393010423	9.79031269160024	4001.4652014652	128.0	14.6135969496088	14.435961377934	0.732824427480916	0.625954198473282	0.229007633587786	-0.750909090909091	0.0427272727272727	-0.209183673469388	101.288746565479	33.6306580522519	
1501504439558.35	0.457831325301205	-0.506024096385542	10.0481927710843	0.29429797670141	0.0980993255671367	9.81974248927039	4001.4652014652	128.0	14.5553947951867	14.4373557294237	0.916030534351145	0.458015267175573	0.122137404580153	-0.748181818181818	0.0427272727272727	-0.208163265306122	101.285769563189	33.6306580522519	
1501504439577.88	0.457831325301205	-0.493975903614458	10.0361445783133	0.29429797670141	0.10790925812385	9.84917228694053	4001.4652014652	128.0	14.6176117202773	14.447548919624	0.854961832061069	0.793893129770992	0.137404580152672	-0.750909090909091	0.0409090909090909	-0.209183673469388	101.282792561679	33.6306580522519	
1501504439597.41	0.445783132530121	-0.493975903614458	10.0481927710843	0.304107909258124	0.10790925812385	9.80993255671367	4001.4652014652	128.0	14.5608519984307	14.4477893250532	0.595419847328244	0.67175572519084	0.106870229007634	-0.751818181818182	0.0409090909090909	-0.210204081632653	101.282792561679	33.6306580522519	
1501504439616.94	0.445783132530121	-0.506024096385542	10.0481927710843	0.274678111587983	0.127529123237278	9.80012262415696	4001.4652014652	128.0	14.6208331530293	14.4523810687519	0.717557251908397	0.778625954198473	-0.0763358778625954	-0.75	0.04	-0.213265306122449	101.288746565479	33.6306580522519	
1501504439636.47	0.445783132530121	-0.518072289156627	10.0481927710843	0.284488044144696	0.10790925812385	9.77069282648682	4001.4652014652	128.0	14.5622463499204	14.4588239342559	0.854961832061069	0.67175572519084	0.152671755725191	-0.753636363636364	0.0418181818181818	-0.208163265306122	101.29172356855	33.6306580522519	
1501504439656.01	0.445783132530121	-0.481927710843373	10.0481927710843	0.284488044144696	0.10790925812385	9.80993255671367	4001.4652014652	128.0	14.6250402480412	14.4709403678902	0.900763358778626	0.564885496183206	-0.0305343511450382	-0.750909090909091	0.0418181818181818	-0.212244897959184	101.29172356855	33.6306580522519	
1501504439675.54	0.457831325301205	-0.493975903614458	10.0481927710843	0.29429797670141	0.10790925812385	9.80993255671367	4001.4652014652	128.0	14.6499702910547	14.4877206668521	0.732824427480916	0.534351145038168	-0.0763358778625954	-0.752727272727273	0.0390909090909091	-0.208163265306122	101.288746565479	33.6306580522519	
1501504439695.07	0.457831325301205	-0.493975903614458	10.0361445783133	0.313917841814837	0.117719190680564	9.77069282648682	4000.0	128.0	14.6270836941898	14.4790901119419	0.82442748091603	0.748091603053435	0.213740458015267	-0.752727272727273	0.0418181818181818	-0.211224489795918	101.282792561679	33.6306580522519	
1501504439714.6	0.433734939759036	-0.493975903614458	10.0481927710843	0.274678111587983	0.137339055793991	9.7608828939301	4001.4652014652	128.0	14.6522301020897	14.4955338433028	0.854961832061069	0.610687022900763	0.0305343511450382	-0.75	0.04	-0.211224489795918	101.285769563189	33.6306580522519	
1501504439734.13	0.445783132530121	-0.493975903614458	10.0602409638554	0.304107909258124	0.088289393010423	9.80012262415696	3997.0695970696	128.0	14.6315071540881	14.4943318161565	0.870229007633588	0.687022900763359	0.0305343511450382	-0.749090909090909	0.0381818181818182	-0.212244897959184	101.288746565479	33.6306580522519	
1501504439753.66	0.433734939759036	-0.493975903614458	10.0361445783133	0.313917841814837	0.0980993255671367	9.77069282648682	4001.4652014652	128.0	14.6529753589203	14.4685603541406	0.82442748091603	0.717557251908397	0.213740458015267	-0.75	0.0427272727272727	-0.213265306122449	101.282792561679	33.6306580522519	
1501504439773.19	0.445783132530121	-0.506024096385542	10.0481927710843	0.274678111587983	0.117719190680564	9.80993255671367	3995.6043956044	128.0	14.6291992619673	14.5020488304355	0.778625954198473	0.67175572519084	0.106870229007634	-0.751818181818182	0.0409090909090909	-0.210204081632653	101.29172356855	33.6306580522519	
1501504439792.72	0.457831325301205	-0.518072289156627	10.0361445783133	0.304107909258124	0.117719190680564	9.80012262415696	4001.4652014652	128.0	14.65790367022	14.5213533864045	0.900763358778626	0.67175572519084	0.0305343511450382	-0.751818181818182	0.0418181818181818	-0.211224489795918	101.285769563189	33.6306580522519	
1501504439812.26	0.445783132530121	-0.506024096385542	10.0481927710843	0.304107909258124	0.0980993255671367	9.83936235438381	3997.0695970696	128.0	14.6340314110952	14.5110399934896	0.854961832061069	0.702290076335878	0.122137404580153	-0.75	0.0436363636363636	-0.209183673469388	101.288746565479	33.6306580522519	
1501504439831.79	0.445783132530121	-0.518072289156627	10.0481927710843	0.29429797670141	0.10790925812385	9.77069282648682	4001.4652014652	128.0	14.6623752112041	14.5313061711756	0.687022900763359	0.702290076335878	0.122137404580153	-0.75	0.0418181818181818	-0.212244897959184	101.288746565479	33.6306580522519	
1501504439851.32	0.457831325301205	-0.493975903614458	10.0602409638554	0.29429797670141	0.117719190680564	9.7608828939301	3995.6043956044	128.0	14.6174674770197	14.527964535709	0.83969465648855	0.900763358778626	0.0305343511450382	-0.751818181818182	0.0418181818181818	-0.210204081632653	101.29172356855	33.6306580522519	
1501504439870.85	0.445783132530121	-0.506024096385542	10.0361445783133	0.323727774371551	0.137339055793991	9.80993255671367	4001.4652014652	128.0	14.6662938197009	14.5386144962249	0.717557251908397	0.732824427480916	0.152671755725191	-0.75	0.0390909090909091	-0.210204081632653	101.288746565479	33.6306580522519	
1501504439890.38	0.445783132530121	-0.493975903614458	10.0361445783133	0.264868179031269	0.117719190680564	9.78050275904353	4001.4652014652	128.0	14.6211937611731	14.5366191311621	0.793893129770992	0.717557251908397	0.213740458015267	-0.750909090909091	0.0427272727272727	-0.209183673469388	101.288746565479	33.6306580522519	
1501504439909.91	0.445783132530121	-0.518072289156627	10.0361445783133	0.304107909258124	0.088289393010423	9.80993255671367	4001.4652014652	128.0	14.6670150359887	14.5376288339649	0.656488549618321	0.549618320610687	-0.0305343511450382	-0.75	0.0445454545454546	-0.209183673469388	101.288746565479	33.6306580522519	
1501504439929.44	0.457831325301205	-0.493975903614458	10.0481927710843	0.264868179031269	0.137339055793991	9.8295524218271	4001.4652014652	128.0	14.6237420587232	14.5514761866899	0.687022900763359	0.763358778625954	0.16793893129771	-0.752727272727273	0.0418181818181818	-0.212244897959184	101.288746565479	33.6306580522519	
1501504439948.97	0.445783132530121	-0.506024096385542	10.0481927710843	0.284488044144696	0.0980993255671367	9.80012262415696	4000.0	128.0	14.6711259688289	14.5594576469411	0.946564885496183	0.687022900763359	0.305343511450382	-0.748181818181818	0.0436363636363636	-0.205102040816327	101.27981556095	33.6306580522519	
1501504439968.51	0.445783132530121	-0.506024096385542	10.0481927710843	0.274678111587983	0.0980993255671367	9.81974248927039	4001.4652014652	128.0	14.6282616807932	14.5628954445794	0.778625954198473	0.641221374045801	-0.0458015267175573	-0.751818181818182	0.0409090909090909	-0.209183673469388	101.282792561679	33.6306580522519	
1501504439988.04	0.457831325301205	-0.506024096385542	10.0602409638554	0.274678111587983	0.10790925812385	9.80012262415696	4001.4652014652	128.0	14.5718625670905	14.5222909675786	0.82442748091603	0.778625954198473	0.183206106870229	-0.750909090909091	0.0409090909090909	-0.210204081632653	101.288746565479	33.6306580522519	
1501504440007.57	0.457831325301205	-0.493975903614458	10.0481927710843	0.274678111587983	0.10790925812385	9.79031269160024	4000.0	128.0	14.6275645050483	14.5613087687463	0.717557251908397	0.67175572519084	0.137404580152672	-0.751818181818182	0.0418181818181818	-0.210204081632653	101.29172356855	33.6306580522519	
1501504440027.1	0.433734939759036	-0.506024096385542	10.0361445783133	0.284488044144696	0.127529123237278	9.79031269160024	4001.4652014652	128.0	14.5734732834665	14.5572699575349	0.809160305343512	0.748091603053435	0.0763358778625954	-0.750909090909091	0.0418181818181818	-0.209183673469388	101.285769563189	33.6306580522519	
1501504440046.63	0.445783132530121	-0.493975903614458	10.0361445783133	0.274678111587983	0.088289393010423	9.81974248927039	4001.4652014652	128.0	14.6306657350857	14.5747714727845	0.748091603053435	0.702290076335878	0.106870229007634	-0.750909090909091	0.0436363636363636	-0.209183673469388	101.29172356855	33.6306580522519	
1501504440066.16	0.445783132530121	-0.493975903614458	10.0361445783133	0.313917841814837	0.0980993255671367	9.80012262415696	4001.4652014652	128.0	14.575877337759	14.5647946474705	0.82442748091603	0.717557251908397	0.0305343511450382	-0.750909090909091	0.0418181818181818	-0.210204081632653	101.288746565479	33.6306580522519	
1501504440085.69	0.445783132530121	-0.506024096385542	10.0481927710843	0.29429797670141	0.088289393010423	9.78050275904353	4001.4652014652	128.0	14.6342718165245	14.5844357710404	0.793893129770992	0.793893129770992	0.198473282442748	-0.751818181818182	0.0418181818181818	-0.209183673469388	101.288746565479	33.6306580522519	
1501504440105.22	0.457831325301205	-0.506024096385542	10.0481927710843	0.274678111587983	0.0980993255671367	9.84917228694053	4001.4652014652	128.0	14.5785698785667	14.5767668378473	0.870229007633588	0.732824427480916	0.0610687022900763	-0.750909090909091	0.0418181818181818	-0.211224489795918	101.288746565479	33.6306580522519	
1501504440124.76	0.457831325301205	-0.506024096385542	10.0361445783133	0.29429797670141	0.0980993255671367	9.80012262415696	4001.4652014652	128.0	14.6364835464736	14.5958550289299	0.885496183206107	0.717557251908397	0.0458015267175573	-0.750909090909091	0.0418181818181818	-0.211224489795918	101.282792561679	33.6306580522519	
1501504440144.29	0.445783132530121	-0.506024096385542	10.0481927710843	0.29429797670141	0.088289393010423	9.80012262415696	4001.4652014652	128.0	14.582945257379	14.5828250546644	0.748091603053435	0.610687022900763	0.0	-0.75	0.04	-0.212244897959184	101.282792561679	33.6306580522519	
1501504440163.82	0.445783132530121	-0.506024096385542	10.0481927710843	0.304107909258124	0.0980993255671367	9.80012262415696	4001.4652014652	128.0	14.5907824743727	14.5803488787431	0.748091603053435	0.67175572519084	-0.0763358778625954	-0.753636363636364	0.0418181818181818	-0.206122448979592	101.288746565479	33.6306580522519	
1501504440183.35	0.445783132530121	-0.506024096385542	10.0481927710843	0.284488044144696	0.0980993255671367	9.7608828939301	4001.4652014652	128.0	14.5836905142097	14.598715853538	0.82442748091603	0.641221374045801	0.0916030534351145	-0.749090909090909	0.0409090909090909	-0.210204081632653	101.29172356855	33.6306580522519	
1501504440202.88	0.457831325301205	-0.493975903614458	10.0361445783133	0.29429797670141	0.0784794604537094	9.80012262415696	4001.4652014652	128.0	14.591960460976	14.5888351903957	0.809160305343512	0.763358778625954	0.152671755725191	-0.751818181818182	0.0436363636363636	-0.207142857142857	101.282792561679	33.6306580522519	
1501504440222.41	0.445783132530121	-0.493975903614458	10.0361445783133	0.304107909258124	0.0980993255671367	9.77069282648682	3997.0695970696	128.0	14.5841472845253	14.5605394713727	0.732824427480916	0.67175572519084	0.213740458015267	-0.75	0.0436363636363636	-0.212244897959184	101.288746565479	33.6306580522519	
1501504440241.94	0.445783132530121	-0.506024096385542	10.0481927710843	0.284488044144696	0.137339055793991	9.79031269160024	4001.4652014652	128.0	14.5920566231477	14.5999659617701	0.580152671755725	0.732824427480916	0.0458015267175573	-0.75	0.0418181818181818	-0.212244897959184	101.285769563189	33.6306580522519	
1501504440261.47	0.433734939759036	-0.506024096385542	10.0481927710843	0.284488044144696	0.0980993255671367	9.79031269160024	3995.6043956044	128.0	14.5889313525674	14.6075387327916	0.82442748091603	0.793893129770992	-0.0305343511450382	-0.751818181818182	0.0409090909090909	-0.211224489795918	101.288746565479	33.6306580522519	
1501504440281.01	0.433734939759036	-0.506024096385542	10.0481927710843	0.284488044144696	0.088289393010423	9.84917228694053	4001.4652014652	128.0	14.5994851509116	14.6095340978544	0.83969465648855	0.778625954198473	0.0916030534351145	-0.750909090909091	0.04	-0.209183673469388	101.282792561679	33.6306580522519	
1501504440300.54	0.433734939759036	-0.493975903614458	10.0361445783133	0.274678111587983	0.088289393010423	9.81974248927039	3997.0695970696	128.0	14.5952059342709	14.6195830447971	0.778625954198473	0.702290076335878	0.0305343511450382	-0.752727272727273	0.0418181818181818	-0.212244897959184	101.288746565479	33.6306580522519	
1501504440320.07	0.481927710843373	-0.481927710843373	10.0361445783133	0.29429797670141	0.058859595340282	9.78050275904353	4001.4652014652	128.0	14.6023459755197	14.615760598472	0.870229007633588	0.717557251908397	0.0305343511450382	-0.751818181818182	0.0409090909090909	-0.211224489795918	101.276838561002	33.6306580522519	
1501504440339.6	0.445783132530121	-0.493975903614458	10.0481927710843	0.284488044144696	0.0980993255671367	9.81974248927039	3995.6043956044	128.0	14.6644667384386	14.6303291674847	0.702290076335878	0.50381679389313	0.198473282442748	-0.75	0.0390909090909091	-0.209183673469388	101.288746565479	33.6306580522519	
1501504440359.13	0.445783132530121	-0.493975903614458	10.0481927710843	0.304107909258124	0.10790925812385	9.86879215205395	4002.9304029304	128.0	14.6033556783226	14.6262182346445	0.641221374045801	0.717557251908397	-0.0763358778625954	-0.751818181818182	0.0427272727272727	-0.212244897959184	101.282792561679	33.6306580522519	
1501504440378.66	0.445783132530121	-0.493975903614458	10.0481927710843	0.274678111587983	0.117719190680564	9.80993255671367	4001.4652014652	128.0	14.6617020760022	14.6425177227479	0.702290076335878	0.702290076335878	-0.0305343511450382	-0.752727272727273	0.04	-0.214285714285714	101.276838561002	33.6306580522519	
1501504440398.19	0.445783132530121	-0.506024096385542	10.0602409638554	0.313917841814837	0.127529123237278	9.83936235438381	3992.67399267399	128.0	14.6031393134363	14.642157114604	0.793893129770992	0.778625954198473	0.183206106870229	-0.751818181818182	0.0427272727272727	-0.209183673469388	101.282792561679	33.6306580522519	
1501504440417.72	0.445783132530121	-0.493975903614458	10.0361445783133	0.304107909258124	0.0980993255671367	9.83936235438381	4001.4652014652	128.0	14.6650437114688	14.6496337234537	0.748091603053435	0.809160305343512	0.122137404580153	-0.749090909090909	0.0418181818181818	-0.210204081632653	101.282792561679	33.6306580522519	
1501504440437.26	0.457831325301205	-0.506024096385542	10.0481927710843	0.284488044144696	0.147148988350705	9.80012262415696	4001.4652014652	128.0	14.6040768946104	14.6474460340475	0.778625954198473	0.687022900763359	-0.0610687022900763	-0.750909090909091	0.04	-0.210204081632653	101.278006716436	33.6133323302513	
1501504440456.79	0.457831325301205	-0.469879518072289	10.0602409638554	0.304107909258124	0.117719190680564	9.81974248927039	4001.4652014652	128.0	14.6639618870372	14.6253768156421	0.809160305343512	0.564885496183206	0.0916030534351145	-0.75	0.0418181818181818	-0.206122448979592	101.278006716436	33.6133323302513	
1501504440476.32	0.445783132530121	-0.493975903614458	10.0602409638554	0.274678111587983	0.0980993255671367	9.80012262415696	4001.4652014652	128.0	14.6986523904783	14.6731934555205	0.687022900763359	0.809160305343512	0.0	-0.751818181818182	0.0418181818181818	-0.210204081632653	101.283960501074	33.6133323302513	
1501504440495.85	0.445783132530121	-0.506024096385542	10.0602409638554	0.255058246474555	0.0784794604537094	9.77069282648682	4002.9304029304	128.0	14.6661495764434	14.6655726034132	0.809160305343512	0.763358778625954	0.0458015267175573	-0.751818181818182	0.0418181818181818	-0.211224489795918	101.283960501074	33.6133323302513	
1501504440515.38	0.457831325301205	-0.493975903614458	10.0361445783133	0.284488044144696	0.088289393010423	9.77069282648682	4001.4652014652	128.0	14.7020901881167	14.6736502258361	0.67175572519084	0.702290076335878	0.0458015267175573	-0.75	0.04	-0.210204081632653	101.278006716436	33.6133323302513	
1501504440534.91	0.469879518072289	-0.481927710843373	10.0361445783133	0.313917841814837	0.10790925812385	9.78050275904353	4001.4652014652	128.0	14.6706691985133	14.6773524694466	0.83969465648855	0.778625954198473	0.0763358778625954	-0.750909090909091	0.0409090909090909	-0.210204081632653	101.278006716436	33.6133323302513	
1501504440554.44	0.445783132530121	-0.506024096385542	10.0481927710843	0.304107909258124	0.10790925812385	9.80993255671367	4002.9304029304	128.0	14.7055520262979	14.691368105972	0.687022900763359	0.610687022900763	0.0152671755725191	-0.752727272727273	0.04	-0.212244897959184	101.275029825287	33.6133323302513	
1501504440573.97	0.457831325301205	-0.506024096385542	10.0481927710843	0.284488044144696	0.0980993255671367	9.81974248927039	4002.9304029304	128.0	14.6742031583233	14.6889640516795	0.656488549618321	0.732824427480916	0.106870229007634	-0.751818181818182	0.04	-0.211224489795918	101.278006716436	33.6133323302513	
1501504440593.51	0.445783132530121	-0.506024096385542	10.0481927710843	0.245248313917842	0.088289393010423	9.74126302881668	4001.4652014652	128.0	14.7092302293655	14.6937240791787	0.763358778625954	0.778625954198473	0.0610687022900763	-0.750909090909091	0.0418181818181818	-0.211224489795918	101.280983608364	33.6133323302513	
1501504440613.04	0.433734939759036	-0.493975903614458	10.0481927710843	0.284488044144696	0.137339055793991	9.79031269160024	4001.4652014652	128.0	14.6769678207598	14.688483240821	0.717557251908397	0.809160305343512	0.0610687022900763	-0.752727272727273	0.0427272727272727	-0.208163265306122	101.280983608364	33.6133323302513	
1501504440632.57	0.457831325301205	-0.506024096385542	10.0481927710843	0.304107909258124	0.10790925812385	9.77069282648682	4001.4652014652	128.0	14.7119227701731	14.7070425399593	0.702290076335878	0.763358778625954	0.198473282442748	-0.751818181818182	0.0418181818181818	-0.211224489795918	101.280983608364	33.6133323302513	
1501504440652.1	0.433734939759036	-0.493975903614458	10.0361445783133	0.304107909258124	0.0784794604537094	9.84917228694053	3991.20879120879	128.0	14.6758619557852	14.7088936617645	0.793893129770992	0.778625954198473	0.0610687022900763	-0.752727272727273	0.0418181818181818	-0.208163265306122	101.283960501074	33.6133323302513	
1501504440671.63	0.457831325301205	-0.518072289156627	10.0602409638554	0.29429797670141	0.0980993255671367	9.8295524218271	4002.9304029304	128.0	14.7151201623821	14.713220959491	0.732824427480916	0.67175572519084	-0.0152671755725191	-0.748181818181818	0.04	-0.209183673469388	101.283960501074	33.6133323302513	
1501504440691.16	0.433734939759036	-0.493975903614458	10.0361445783133	0.304107909258124	0.10790925812385	9.83936235438381	4001.4652014652	128.0	14.6750205367828	14.6849973620968	0.82442748091603	0.778625954198473	0.106870229007634	-0.752727272727273	0.04	-0.209183673469388	101.286937394564	33.6133323302513	
1501504440710.69	0.445783132530121	-0.481927710843373	10.0481927710843	0.29429797670141	0.0784794604537094	9.81974248927039	3997.0695970696	128.0	14.7121872161453	14.7184858383917	0.793893129770992	0.580152671755725	0.152671755725191	-0.753636363636364	0.04	-0.213265306122449	101.278006716436	33.6133323302513	
1501504440730.22	0.445783132530121	-0.493975903614458	10.0361445783133	0.29429797670141	0.0980993255671367	9.78050275904353	4001.4652014652	128.0	14.6763668071866	14.7194474601087	0.809160305343512	0.656488549618321	0.0	-0.751818181818182	0.0409090909090909	-0.209183673469388	101.278006716436	33.6133323302513	
1501504440749.76	0.445783132530121	-0.481927710843373	10.0481927710843	0.245248313917842	0.127529123237278	9.8295524218271	3995.6043956044	128.0	14.7159135002987	14.7275731636174	0.610687022900763	0.778625954198473	0.0916030534351145	-0.751818181818182	0.0409090909090909	-0.209183673469388	101.278006716436	33.6133323302513	
1501504440769.29	0.445783132530121	-0.481927710843373	10.0602409638554	0.304107909258124	0.117719190680564	9.84917228694053	4001.4652014652	128.0	14.679780564282	14.7296166097661	0.656488549618321	0.778625954198473	0.290076335877863	-0.752727272727273	0.0427272727272727	-0.213265306122449	101.283960501074	33.6133323302513	
1501504440788.82	0.445783132530121	-0.506024096385542	10.0361445783133	0.29429797670141	0.10790925812385	9.78050275904353	3997.0695970696	128.0	14.6242228695817	14.7265634608146	0.549618320610687	0.763358778625954	0.183206106870229	-0.750909090909091	0.0409090909090909	-0.209183673469388	101.272052934919	33.6133323302513	
1501504440808.35	0.457831325301205	-0.493975903614458	10.0361445783133	0.274678111587983	0.147148988350705	9.78050275904353	4001.4652014652	128.0	14.6848531188392	14.7400742459386	0.732824427480916	0.82442748091603	0.0	-0.749090909090909	0.0463636363636364	-0.209183673469388	101.283960501074	33.6133323302513	
1501504440827.88	0.457831325301205	-0.493975903614458	10.0481927710843	0.29429797670141	0.0980993255671367	9.80993255671367	4001.4652014652	128.0	14.6249681264124	14.7269481095014	0.67175572519084	0.50381679389313	0.137404580152672	-0.752727272727273	0.0427272727272727	-0.208163265306122	101.278006716436	33.6133323302513	
1501504440847.41	0.445783132530121	-0.493975903614458	10.0602409638554	0.284488044144696	0.117719190680564	9.77069282648682	4001.4652014652	128.0	14.6877379839903	14.7478874223893	0.809160305343512	0.717557251908397	-0.0152671755725191	-0.752727272727273	0.0445454545454546	-0.211224489795918	101.283960501074	33.6133323302513	
1501504440866.94	0.445783132530121	-0.506024096385542	10.0481927710843	0.313917841814837	0.117719190680564	9.78050275904353	4001.4652014652	128.0	14.6298483566262	14.7379586781611	0.885496183206107	0.702290076335878	0.106870229007634	-0.751818181818182	0.0409090909090909	-0.210204081632653	101.283960501074	33.6133323302513	
1501504440886.47	0.445783132530121	-0.493975903614458	10.0602409638554	0.323727774371551	0.117719190680564	9.7608828939301	4001.4652014652	128.0	14.6897333490531	14.7542822068074	0.656488549618321	0.549618320610687	0.244274809160305	-0.75	0.0390909090909091	-0.208163265306122	101.283960501074	33.6133323302513	
1501504440906.01	0.445783132530121	-0.506024096385542	10.0602409638554	0.284488044144696	0.127529123237278	9.7608828939301	4001.4652014652	128.0	14.6325408974339	14.7466373141572	0.809160305343512	0.748091603053435	0.0610687022900763	-0.752727272727273	0.0409090909090909	-0.211224489795918	101.286937394564	33.6133323302513	
1501504440925.54	0.445783132530121	-0.493975903614458	10.0481927710843	0.255058246474555	0.0980993255671367	9.7608828939301	4001.4652014652	128.0	14.6892525381946	14.720962014313	0.854961832061069	0.732824427480916	0.0916030534351145	-0.752727272727273	0.0409090909090909	-0.208163265306122	101.278006716436	33.6133323302513	
1501504440945.07	0.433734939759036	-0.506024096385542	10.0602409638554	0.264868179031269	0.117719190680564	9.75107296137339	4002.9304029304	128.0	14.6308099783432	14.752791693146	0.82442748091603	0.595419847328244	0.16793893129771	-0.752727272727273	0.0436363636363636	-0.212244897959184	101.283960501074	33.6133323302513	
1501504440964.6	0.433734939759036	-0.493975903614458	10.0361445783133	0.284488044144696	0.10790925812385	9.80993255671367	4001.4652014652	128.0	14.6277327888488	14.7421657731731	0.83969465648855	0.580152671755725	0.137404580152672	-0.750909090909091	0.0427272727272727	-0.209183673469388	101.280983608364	33.6133323302513	
1501504440984.13	0.445783132530121	-0.493975903614458	10.0361445783133	0.304107909258124	0.0784794604537094	9.81974248927039	4001.4652014652	128.0	14.6313869513735	14.7504838010252	0.656488549618321	0.748091603053435	-0.0152671755725191	-0.753636363636364	0.0409090909090909	-0.211224489795918	101.283960501074	33.6133323302513	
1501504441003.66	0.445783132530121	-0.493975903614458	10.0361445783133	0.29429797670141	0.088289393010423	9.81974248927039	4001.4652014652	128.0	14.6288867349092	14.753753314863	0.82442748091603	0.67175572519084	0.0152671755725191	-0.753636363636364	0.0418181818181818	-0.208163265306122	101.275029825287	33.6133323302513	
1501504441023.19	0.445783132530121	-0.493975903614458	10.0481927710843	0.284488044144696	0.166768853464132	9.79031269160024	4002.9304029304	128.0	14.6348247490118	14.760845275026	0.900763358778626	0.641221374045801	0.244274809160305	-0.751818181818182	0.0381818181818182	-0.210204081632653	101.283960501074	33.6133323302513	
1501504441042.72	0.433734939759036	-0.518072289156627	10.0361445783133	0.333537706928265	0.137339055793991	9.78050275904353	4001.4652014652	128.0	14.6294396673965	14.7539696797494	0.793893129770992	0.549618320610687	0.0152671755725191	-0.751818181818182	0.0390909090909091	-0.209183673469388	101.283960501074	33.6133323302513	
1501504441062.26	0.457831325301205	-0.518072289156627	10.0481927710843	0.323727774371551	0.137339055793991	9.79031269160024	4001.4652014652	128.0	14.6347045462971	14.7676487486738	0.732824427480916	0.625954198473282	0.152671755725191	-0.754545454545455	0.04	-0.209183673469388	101.280983608364	33.6133323302513	
1501504441081.79	0.445783132530121	-0.493975903614458	10.0361445783133	0.304107909258124	0.0980993255671367	9.79031269160024	4001.4652014652	128.0	14.6314590730022	14.7662303566413	0.793893129770992	0.67175572519084	0.0916030534351145	-0.751818181818182	0.0409090909090909	-0.211224489795918	101.278006716436	33.6133323302513	
1501504441101.32	0.445783132530121	-0.493975903614458	10.0481927710843	0.323727774371551	0.0686695278969957	9.79031269160024	4001.4652014652	128.0	14.6385510331652	14.7798853850228	0.748091603053435	0.793893129770992	-0.0458015267175573	-0.751818181818182	0.0418181818181818	-0.209183673469388	101.278006716436	33.6133323302513	
1501504441120.85	0.445783132530121	-0.481927710843373	10.0602409638554	0.304107909258124	0.088289393010423	9.84917228694053	4001.4652014652	128.0	14.6329015055777	14.7676487486738	0.778625954198473	0.793893129770992	0.16793893129771	-0.752727272727273	0.0427272727272727	-0.212244897959184	101.286937394564	33.6133323302513	
1501504441140.38	0.506024096385542	-0.349397590361446	10.9518072289157	0.313917841814837	0.225628448804414	10.2023298589822	4001.4652014652	128.0	14.7014891745435	14.7799815471945	-1.54198473282443	0.931297709923664	0.0916030534351145	-0.754545454545455	0.0409090909090909	-0.212244897959184	101.278006716436	33.6133323302513	
1501504441159.91	0.289156626506024	-0.710843373493976	9.73493975903615	0.196198651134273	0.0784794604537094	9.03494788473329	4001.4652014652	128.0	14.6671592792462	14.737694232189	1.72519083969466	0.488549618320611	0.0916030534351145	-0.750909090909091	0.0409090909090909	-0.210204081632653	101.283960501074	33.6133323302513	
1501504441179.44	0.469879518072289	-0.614457831325301	10.0	0.284488044144696	0.00980993255671367	10.1925199264255	4001.4652014652	128.0	14.7081724454767	14.7881072507032	0.488549618320611	0.83969465648855	0.122137404580153	-0.750909090909091	0.0436363636363636	-0.211224489795918	101.283960501074	33.6133323302513	
1501504441198.97	0.469879518072289	-0.469879518072289	9.60240963855422	0.313917841814837	0.176578786020846	9.66278356836297	3997.0695970696	128.0	14.6306657350857	14.7832270204894	0.946564885496183	0.366412213740458	0.213740458015267	-0.752727272727273	0.0427272727272727	-0.210204081632653	101.283960501074	33.6133323302513	
1501504441218.51	0.373493975903614	-0.433734939759036	10.6144578313253	0.29429797670141	0.156958920907419	10.1238503985285	4004.3956043956	128.0	14.6845886728671	14.79301152146	0.793893129770992	0.564885496183206	0.213740458015267	-0.75	0.04	-0.212244897959184	101.286937394564	33.6133323302513	
1501504441238.04	0.469879518072289	-0.590361445783133	10.1325301204819	0.284488044144696	0.088289393010423	9.72164316370325	3998.5347985348	128.0	14.6250162074983	14.7862801694409	1.19083969465649	0.488549618320611	0.0305343511450382	-0.75	0.04	-0.212244897959184	101.278006716436	33.6133323302513	
1501504441257.57	0.481927710843373	-0.481927710843373	9.7710843373494	0.313917841814837	0.0980993255671367	9.79031269160024	4000.0	128.0	14.6807662265419	14.7913767645411	0.290076335877863	0.931297709923664	0.0916030534351145	-0.751818181818182	0.0427272727272727	-0.209183673469388	101.283960501074	33.6133323302513	
1501504441277.1	0.409638554216868	-0.506024096385542	10.4096385542169	0.29429797670141	0.117719190680564	9.88841201716738	3998.5347985348	128.0	14.7255297174688	14.8037816846905	1.06870229007634	0.595419847328244	0.137404580152672	-0.751818181818182	0.0418181818181818	-0.213265306122449	101.275029825287	33.6133323302513	
1501504441296.63	0.385542168674699	-0.397590361445783	9.7710843373494	0.274678111587983	0.176578786020846	9.7608828939301	4000.0	128.0	14.6873533353035	14.7998630761937	0.320610687022901	0.83969465648855	0.0763358778625954	-0.753636363636364	0.0381818181818182	-0.209183673469388	101.283960501074	33.6133323302513	
1501504441316.16	0.506024096385542	-0.578313253012048	10.2771084337349	0.441446965052115	0.10790925812385	9.83936235438381	4001.4652014652	128.0	14.7313956099425	14.8133979018606	0.656488549618321	0.610687022900763	0.0763358778625954	-0.751818181818182	0.0409090909090909	-0.211224489795918	101.286937394564	33.6133323302513	
1501504441335.69	0.421686746987952	-0.530120481927711	9.7710843373494	0.274678111587983	0.10790925812385	9.80012262415696	4000.0	128.0	14.6883630381063	14.8075560499298	0.564885496183206	0.687022900763359	0.0	-0.750909090909091	0.0381818181818182	-0.210204081632653	101.278006716436	33.6133323302513	
1501504441355.22	0.445783132530121	-0.518072289156627	10.2771084337349	0.274678111587983	0.088289393010423	9.80993255671367	4001.4652014652	128.0	14.7349776508384	14.8199369295363	0.977099236641221	0.67175572519084	0.137404580152672	-0.750909090909091	0.0418181818181818	-0.209183673469388	101.289914288834	33.6133323302513	
1501504441374.76	0.457831325301205	-0.421686746987952	9.87951807228916	0.29429797670141	0.166768853464132	9.80012262415696	4001.4652014652	128.0	14.6917767952017	14.8132536586031	0.870229007633588	0.748091603053435	0.0458015267175573	-0.749090909090909	0.04	-0.208163265306122	101.289914288834	33.6133323302513	
1501504441394.29	0.493975903614458	-0.518072289156627	10.1927710843374	0.313917841814837	0.156958920907419	9.89822194972409	4001.4652014652	128.0	14.7324774343742	14.7876023993018	0.67175572519084	0.732824427480916	0.0610687022900763	-0.746363636363636	0.04	-0.208163265306122	101.286937394564	33.6133323302513	
1501504441413.82	0.409638554216868	-0.590361445783133	9.91566265060241	0.255058246474555	0.117719190680564	9.74126302881668	4000.0	128.0	14.6904305247979	14.8158019561532	0.732824427480916	0.564885496183206	-0.0916030534351145	-0.75	0.0436363636363636	-0.207142857142857	101.283960501074	33.6133323302513	
1501504441433.35	0.469879518072289	-0.469879518072289	10.0602409638554	0.274678111587983	0.0980993255671367	9.87860208461067	4001.4652014652	128.0	14.7351940157247	14.8318610388272	0.82442748091603	0.67175572519084	0.152671755725191	-0.752727272727273	0.0427272727272727	-0.209183673469388	101.290341838499	33.6364329966675	
1501504441452.88	0.433734939759036	-0.457831325301205	10.1204819277108	0.245248313917842	0.117719190680564	9.80012262415696	4001.4652014652	128.0	14.7070184994163	14.8343612552915	0.870229007633588	0.625954198473282	0.106870229007634	-0.752727272727273	0.0427272727272727	-0.210204081632653	101.290341838499	33.6364329966675	
1501504441472.41	0.409638554216868	-0.518072289156627	9.98795180722892	0.304107909258124	0.117719190680564	9.79031269160024	4001.4652014652	128.0	14.7368768537295	14.8359238905816	0.610687022900763	0.656488549618321	0.183206106870229	-0.752727272727273	0.0409090909090909	-0.211224489795918	101.284387761649	33.6364329966675	
1501504441491.94	0.469879518072289	-0.542168674698795	10.1084337349398	0.284488044144696	0.088289393010423	9.8295524218271	4001.4652014652	128.0	14.7104803375976	14.8420542290275	0.854961832061069	0.610687022900763	0.106870229007634	-0.75	0.0409090909090909	-0.210204081632653	101.293318878095	33.6364329966675	
1501504441511.47	0.469879518072289	-0.493975903614458	9.95180722891566	0.29429797670141	0.088289393010423	9.80012262415696	4000.0	128.0	14.737670191646	14.8447708103781	0.67175572519084	0.732824427480916	0.213740458015267	-0.751818181818182	0.0409090909090909	-0.210204081632653	101.284387761649	33.6364329966675	
1501504441531.01	0.433734939759036	-0.506024096385542	10.144578313253	0.235438381361128	0.088289393010423	9.87860208461067	3972.16117216117	128.0	14.7098312429386	14.8421984722851	0.83969465648855	0.687022900763359	0.106870229007634	-0.737272727272727	0.0718181818181818	-0.192857142857143	101.290341838499	33.6364329966675	
1501504441550.54	0.433734939759036	-0.493975903614458	9.98795180722892	0.29429797670141	0.10790925812385	9.80993255671367	3970.69597069597	128.0	14.7255056769259	14.7763033441269	0.732824427480916	0.625954198473282	-0.0458015267175573	-0.737272727272727	0.0718181818181818	-0.196938775510204	101.284387761649	33.6364329966675	
1501504441570.07	0.469879518072289	-0.518072289156627	10.0843373493976	0.284488044144696	0.10790925812385	9.8295524218271	3972.16117216117	128.0	14.6936519575499	14.7885640210188	0.992366412213741	0.580152671755725	0.198473282442748	-0.737272727272727	0.0736363636363636	-0.194897959183673	101.293318878095	33.6364329966675	
1501504441589.6	0.433734939759036	-0.506024096385542	10.0	0.304107909258124	0.088289393010423	9.73145309625996	3972.16117216117	128.0	14.7046865667526	14.7870013857287	0.748091603053435	0.687022900763359	0.0916030534351145	-0.739090909090909	0.0727272727272727	-0.196938775510204	101.290341838499	33.6364329966675	
1501504441609.13	0.457831325301205	-0.506024096385542	10.0843373493976	0.29429797670141	0.0784794604537094	9.81974248927039	3972.16117216117	128.0	14.6625915760904	14.7870735073575	0.854961832061069	0.702290076335878	0.106870229007634	-0.737272727272727	0.0718181818181818	-0.198979591836735	101.284387761649	33.6364329966675	
1501504441628.66	0.457831325301205	-0.493975903614458	10.0	0.284488044144696	0.127529123237278	9.81974248927039	3976.55677655678	128.0	14.5825846492352	14.7601240587382	1.02290076335878	0.580152671755725	0.0	-0.736363636363636	0.0709090909090909	-0.198979591836735	101.293318878095	33.6364329966675	
1501504441648.19	0.457831325301205	-0.506024096385542	10.0602409638554	0.264868179031269	0.147148988350705	9.80993255671367	4000.0	128.0	14.6349689922693	14.7982283192748	0.748091603053435	0.763358778625954	-0.0458015267175573	-0.751818181818182	0.0436363636363636	-0.207142857142857	101.284387761649	33.6364329966675	
1501504441667.72	0.445783132530121	-0.493975903614458	10.0481927710843	0.264868179031269	0.117719190680564	9.77069282648682	4000.0	128.0	14.5758052161302	14.8438813102899	0.977099236641221	0.946564885496183	0.198473282442748	-0.753636363636364	0.0427272727272727	-0.209183673469388	101.290341838499	33.6364329966675	
1501504441687.26	0.421686746987952	-0.469879518072289	10.0361445783133	0.274678111587983	0.088289393010423	9.84917228694053	3997.0695970696	128.0	14.6456189527852	14.8725616779997	0.809160305343512	0.580152671755725	0.381679389312977	-0.751818181818182	0.0427272727272727	-0.211224489795918	101.290341838499	33.6364329966675	
1501504441706.79	0.445783132530121	-0.506024096385542	10.0722891566265	0.284488044144696	0.10790925812385	9.79031269160024	4001.4652014652	128.0	14.5753244052717	14.8604692849083	0.870229007633588	0.442748091603053	0.152671755725191	-0.749090909090909	0.0418181818181818	-0.208163265306122	101.284387761649	33.6364329966675	
1501504441726.32	0.433734939759036	-0.493975903614458	10.0240963855422	0.264868179031269	0.127529123237278	9.7608828939301	3995.6043956044	128.0	14.6342958570674	14.8722251103987	0.625954198473282	0.67175572519084	0.0458015267175573	-0.749090909090909	0.0418181818181818	-0.208163265306122	101.287364799684	33.6364329966675	
1501504441745.85	0.457831325301205	-0.493975903614458	10.0722891566265	0.245248313917842	0.0980993255671367	9.77069282648682	4001.4652014652	128.0	14.5611885660317	14.8678737721293	0.900763358778626	0.778625954198473	0.0610687022900763	-0.75	0.0409090909090909	-0.209183673469388	101.290341838499	33.6364329966675	
1501504441765.38	0.457831325301205	-0.493975903614458	10.0	0.284488044144696	0.0980993255671367	9.80012262415696	3997.0695970696	128.0	14.5475575781931	14.8529926760585	0.809160305343512	0.687022900763359	0.0610687022900763	-0.75	0.0390909090909091	-0.212244897959184	101.290341838499	33.6364329966675	
1501504441784.91	0.433734939759036	-0.506024096385542	10.0722891566265	0.304107909258124	0.058859595340282	9.80012262415696	4001.4652014652	128.0	14.569458512798	14.866359217925	0.82442748091603	0.732824427480916	0.0610687022900763	-0.75	0.0427272727272727	-0.211224489795918	101.287364799684	33.6364329966675	
1501504441804.44	0.445783132530121	-0.506024096385542	10.0	0.29429797670141	0.0784794604537094	9.71183323114654	4001.4652014652	128.0	14.6092215707964	14.8614068660824	1.08396946564886	0.793893129770992	0.16793893129771	-0.752727272727273	0.0390909090909091	-0.209183673469388	101.290341838499	33.6364329966675	
1501504441823.97	0.445783132530121	-0.518072289156627	10.0120481927711	0.274678111587983	0.0686695278969957	9.79031269160024	4001.4652014652	128.0	14.7665669242422	14.8814085977962	0.885496183206107	0.580152671755725	0.0305343511450382	-0.751818181818182	0.0409090909090909	-0.210204081632653	101.290341838499	33.6364329966675	
1501504441843.51	0.433734939759036	-0.518072289156627	10.0	0.264868179031269	0.10790925812385	9.78050275904353	4000.0	128.0	14.7326697587176	14.8786198948169	0.946564885496183	0.625954198473282	0.106870229007634	-0.752727272727273	0.0390909090909091	-0.210204081632653	101.290341838499	33.6364329966675	
1501504441863.04	0.445783132530121	-0.578313253012048	9.86746987951807	0.264868179031269	0.088289393010423	9.85898221949724	4000.0	128.0	14.691993160088	14.8490981081046	0.961832061068702	0.793893129770992	0.0916030534351145	-0.750909090909091	0.0390909090909091	-0.212244897959184	101.290341838499	33.6364329966675	
1501504441882.57	0.650602409638554	-0.55421686746988	10.5421686746988	0.29429797670141	0.156958920907419	9.75107296137339	4002.9304029304	128.0	14.6748522529823	14.8795093949051	1.93893129770992	0.442748091603053	-0.244274809160305	-0.750909090909091	0.0427272727272727	-0.211224489795918	101.284387761649	33.6364329966675	
1501504441902.1	0.469879518072289	-0.409638554216868	9.93975903614458	0.313917841814837	0.245248313917842	9.66278356836297	4000.0	128.0	14.6954790388122	14.8924912880847	0.595419847328244	1.00763358778626	0.0916030534351145	-0.749090909090909	0.0418181818181818	-0.209183673469388	101.287364799684	33.6364329966675	
1501504441921.63	0.433734939759036	-0.686746987951807	10.1084337349398	0.274678111587983	0.156958920907419	9.66278356836297	4001.4652014652	128.0	14.6672073603321	14.8792689894758	0.610687022900763	0.534351145038168	0.0916030534351145	-0.750909090909091	0.04	-0.209183673469388	101.290341838499	33.6364329966675	
1501504441941.16	0.433734939759036	-0.578313253012048	9.89156626506024	0.284488044144696	0.0490496627835684	9.81974248927039	4001.4652014652	128.0	14.7460122600411	14.8873225713558	0.595419847328244	0.793893129770992	-0.106870229007634	-0.749090909090909	0.04	-0.212244897959184	101.290341838499	33.6364329966675	
1501504441960.69	0.469879518072289	-0.469879518072289	10.1807228915663	0.313917841814837	0.029429797670141	9.90803188228081	4001.4652014652	128.0	14.6591778189951	14.887250449727	1.17557251908397	0.549618320610687	0.0458015267175573	-0.75	0.0409090909090909	-0.208163265306122	101.281410724396	33.6364329966675	
1501504441980.22	0.337349397590361	-0.433734939759036	10.0120481927711	0.215818516247701	0.137339055793991	9.79031269160024	4001.4652014652	128.0	14.7452910437534	14.8851589224925	0.656488549618321	0.702290076335878	0.198473282442748	-0.754545454545455	0.0390909090909091	-0.208163265306122	101.287364799684	33.6364329966675	
1501504441999.76	0.506024096385542	-0.433734939759036	10.0963855421687	0.235438381361128	0.127529123237278	9.92765174739424	4001.4652014652	128.0	14.6581681161922	14.8974676804703	1.05343511450382	0.732824427480916	0.0152671755725191	-0.75	0.0436363636363636	-0.212244897959184	101.290341838499	33.6364329966675	
1501504442019.29	0.518072289156627	-0.55421686746988	10.0361445783133	0.343347639484979	0.10790925812385	9.7608828939301	4000.0	128.0	14.7485124765053	14.9028287215426	0.687022900763359	0.687022900763359	0.122137404580153	-0.749090909090909	0.0418181818181818	-0.210204081632653	101.290341838499	33.6364329966675	
1501504442038.82	0.421686746987952	-0.518072289156627	9.98795180722892	0.333537706928265	0.058859595340282	9.79031269160024	4001.4652014652	128.0	14.6546101158393	14.8996794104194	0.854961832061069	0.854961832061069	0.0763358778625954	-0.752727272727273	0.0409090909090909	-0.210204081632653	101.290341838499	33.6364329966675	
1501504442058.35	0.445783132530121	-0.469879518072289	10.1325301204819	0.313917841814837	0.088289393010423	9.84917228694053	4001.4652014652	128.0	14.7465411519855	14.911074627766	1.17557251908397	0.656488549618321	0.0916030534351145	-0.75	0.0427272727272727	-0.211224489795918	101.290341838499	33.6364329966675	
1501504442077.88	0.469879518072289	-0.421686746987952	9.98795180722892	0.362967504598406	0.147148988350705	9.78050275904353	4000.0	128.0	14.8210187539679	14.9199215475625	0.82442748091603	0.67175572519084	0.0305343511450382	-0.752727272727273	0.0418181818181818	-0.209183673469388	101.284387761649	33.6364329966675	
1501504442097.41	0.433734939759036	-0.55421686746988	10.1084337349398	0.29429797670141	0.088289393010423	9.8295524218271	4001.4652014652	128.0	14.7326937992605	14.8741483538328	0.854961832061069	0.595419847328244	0.0458015267175573	-0.749090909090909	0.0390909090909091	-0.211224489795918	101.284387761649	33.6364329966675	
1501504442116.94	0.385542168674699	-0.55421686746988	9.89156626506024	0.274678111587983	0.058859595340282	9.79031269160024	3985.34798534799	128.0	14.8142874019489	14.9285521024726	0.809160305343512	0.763358778625954	0.106870229007634	-0.75	0.0427272727272727	-0.210204081632653	101.290341838499	33.6364329966675	
1501504442136.47	0.493975903614458	-0.421686746987952	10.144578313253	0.284488044144696	0.10790925812385	9.78050275904353	4000.0	128.0	14.723846879464	14.9189839663884	0.83969465648855	0.67175572519084	0.0458015267175573	-0.75	0.0418181818181818	-0.210204081632653	101.287364799684	33.6364329966675	
1501504442156.01	0.445783132530121	-0.433734939759036	10.0481927710843	0.323727774371551	0.196198651134273	9.85898221949724	4001.4652014652	128.0	14.80459906315	14.9278549267278	0.854961832061069	0.763358778625954	0.0610687022900763	-0.753636363636364	0.0409090909090909	-0.209183673469388	101.287364799684	33.6364329966675	
1501504442175.54	0.445783132530121	-0.55421686746988	10.0481927710843	0.313917841814837	0.0980993255671367	9.81974248927039	3997.0695970696	128.0	14.6993255256802	14.9145364659472	0.717557251908397	0.763358778625954	0.152671755725191	-0.751818181818182	0.04	-0.213265306122449	101.290341838499	33.6364329966675	
1501504442195.07	0.445783132530121	-0.566265060240964	10.0120481927711	0.304107909258124	0.00980993255671367	9.66278356836297	4001.4652014652	128.0	14.78947756165	14.9385289277866	0.687022900763359	0.67175572519084	0.0305343511450382	-0.753636363636364	0.0409090909090909	-0.212244897959184	101.284387761649	33.6364329966675	
1501504442214.6	0.445783132530121	-0.469879518072289	10.0722891566265	0.304107909258124	0.0784794604537094	9.75107296137339	3997.0695970696	128.0	14.700046741968	14.9314850487095	0.946564885496183	0.656488549618321	0.0916030534351145	-0.753636363636364	0.0409090909090909	-0.212244897959184	101.290341838499	33.6364329966675	
1501504442234.13	0.421686746987952	-0.469879518072289	10.0481927710843	0.235438381361128	0.176578786020846	9.7608828939301	4001.4652014652	128.0	14.8039018874051	14.9373749817262	0.702290076335878	0.641221374045801	-0.0152671755725191	-0.751818181818182	0.0381818181818182	-0.211224489795918	101.290341838499	33.6364329966675	
1501504442253.66	0.433734939759036	-0.493975903614458	10.0240963855422	0.284488044144696	0.0784794604537094	9.85898221949724	3997.0695970696	128.0	14.7669996540149	14.9511982939082	0.67175572519084	0.473282442748092	0.198473282442748	-0.750909090909091	0.0418181818181818	-0.212244897959184	101.290341838499	33.6364329966675	
1501504442273.19	0.457831325301205	-0.518072289156627	10.0240963855422	0.304107909258124	0.0686695278969957	9.79031269160024	4001.4652014652	128.0	14.8113304151691	14.9590355109019	0.656488549618321	0.793893129770992	0.16793893129771	-0.752727272727273	0.0436363636363636	-0.214285714285714	101.284387761649	33.6364329966675	
1501504442292.72	0.421686746987952	-0.530120481927711	10.0240963855422	0.255058246474555	0.0	9.81974248927039	4001.4652014652	128.0	14.7693315866786	14.958674902758	0.748091603053435	0.595419847328244	-0.0305343511450382	-0.752727272727273	0.04	-0.211224489795918	101.287364799684	33.6364329966675	
1501504442312.26	0.445783132530121	-0.481927710843373	10.0361445783133	0.284488044144696	0.0490496627835684	9.80993255671367	4001.4652014652	128.0	14.8244325110633	14.9618242138812	0.793893129770992	0.83969465648855	0.290076335877863	-0.750909090909091	0.0427272727272727	-0.21530612244898	101.281410724396	33.6364329966675	
1501504442331.79	0.481927710843373	-0.469879518072289	10.0481927710843	0.333537706928265	0.0980993255671367	9.81974248927039	4001.4652014652	128.0	14.7816643851993	14.9294416025609	0.854961832061069	0.534351145038168	0.213740458015267	-0.752727272727273	0.0436363636363636	-0.210204081632653	101.284387761649	33.6364329966675	
1501504442351.32	0.433734939759036	-0.518072289156627	10.0722891566265	0.255058246474555	0.088289393010423	9.84917228694053	4000.0	128.0	14.8303945657088	14.9668486873526	0.580152671755725	0.67175572519084	0.16793893129771	-0.753636363636364	0.0418181818181818	-0.212244897959184	101.281410724396	33.6364329966675	
1501504442370.85	0.421686746987952	-0.493975903614458	10.0361445783133	0.245248313917842	0.088289393010423	9.86879215205395	4001.4652014652	128.0	14.7901506968519	14.9733877150283	0.67175572519084	0.763358778625954	0.0458015267175573	-0.752727272727273	0.0409090909090909	-0.212244897959184	101.287364799684	33.6364329966675	
1501504442390.38	0.469879518072289	-0.469879518072289	10.0722891566265	0.284488044144696	0.127529123237278	9.80993255671367	4001.4652014652	128.0	14.8241921056341	14.9724501338542	0.748091603053435	0.564885496183206	0.0305343511450382	-0.752727272727273	0.0409090909090909	-0.211224489795918	101.284387761649	33.6364329966675	
1501504442409.91	0.457831325301205	-0.481927710843373	10.0843373493976	0.304107909258124	0.10790925812385	9.81974248927039	4001.4652014652	128.0	14.7796209390506	14.9749984314042	0.82442748091603	0.549618320610687	0.16793893129771	-0.751818181818182	0.0427272727272727	-0.212244897959184	101.290341838499	33.6364329966675	
1501504442429.44	0.457831325301205	-0.518072289156627	10.0481927710843	0.323727774371551	0.0980993255671367	9.80012262415696	4001.4652014652	128.0	14.6502828181127	14.9626175517977	0.656488549618321	0.83969465648855	0.0610687022900763	-0.750909090909091	0.0409090909090909	-0.211224489795918	101.287151251573	33.624882959732	
1501504442448.97	0.481927710843373	-0.506024096385542	10.0361445783133	0.37277743715512	0.10790925812385	9.8295524218271	4001.4652014652	128.0	14.7607250723114	14.9789891615298	0.610687022900763	0.702290076335878	-0.0458015267175573	-0.751818181818182	0.0418181818181818	-0.211224489795918	101.290128218118	33.624882959732	
1501504442468.51	0.445783132530121	-0.481927710843373	10.0361445783133	0.313917841814837	0.117719190680564	9.83936235438381	4001.4652014652	128.0	14.6266028833313	14.969925876847	0.748091603053435	0.82442748091603	0.137404580152672	-0.751818181818182	0.0409090909090909	-0.212244897959184	101.284174285808	33.624882959732	
1501504442488.04	0.421686746987952	-0.481927710843373	10.0481927710843	0.264868179031269	0.127529123237278	9.79031269160024	4001.4652014652	128.0	14.7544985716937	14.9810326076785	0.854961832061069	0.732824427480916	0.244274809160305	-0.754545454545455	0.0390909090909091	-0.211224489795918	101.287151251573	33.624882959732	
1501504442507.57	0.421686746987952	-0.481927710843373	10.0481927710843	0.264868179031269	0.117719190680564	9.81974248927039	4001.4652014652	128.0	14.6304253296564	14.9780996614416	0.732824427480916	0.717557251908397	-0.16793893129771	-0.751818181818182	0.0427272727272727	-0.214285714285714	101.290128218118	33.624882959732	
1501504442527.1	0.445783132530121	-0.493975903614458	10.0481927710843	0.29429797670141	0.117719190680564	9.80012262415696	4001.4652014652	128.0	14.7665188431564	14.9862494054933	0.778625954198473	0.641221374045801	0.0	-0.75	0.0427272727272727	-0.213265306122449	101.278220356622	33.624882959732	
1501504442546.63	0.530120481927711	-0.518072289156627	9.97590361445783	0.353157572041692	0.0980993255671367	9.75107296137339	4001.4652014652	128.0	14.6390318440237	14.981176850936	0.580152671755725	0.717557251908397	0.0458015267175573	-0.750909090909091	0.0418181818181818	-0.211224489795918	101.287151251573	33.624882959732	
1501504442566.16	0.469879518072289	-0.493975903614458	10.0963855421687	0.343347639484979	0.215818516247701	9.80993255671367	4001.4652014652	128.0	14.6024180971485	14.9419907659679	0.641221374045801	0.809160305343512	0.33587786259542	-0.75	0.04	-0.211224489795918	101.287151251573	33.624882959732	
1501504442585.69	0.469879518072289	-0.469879518072289	10.0602409638554	0.304107909258124	0.10790925812385	9.80993255671367	4001.4652014652	128.0	14.6522301020897	14.9768495532095	0.82442748091603	0.488549618320611	0.122137404580153	-0.751818181818182	0.0409090909090909	-0.211224489795918	101.287151251573	33.624882959732	
1501504442605.22	0.457831325301205	-0.493975903614458	10.0240963855422	0.304107909258124	0.0686695278969957	9.72164316370325	4001.4652014652	128.0	14.6127795711493	14.9787006750147	1.00763358778626	0.67175572519084	0.0763358778625954	-0.752727272727273	0.0427272727272727	-0.212244897959184	101.287151251573	33.624882959732	
1501504442624.76	0.445783132530121	-0.530120481927711	10.0361445783133	0.304107909258124	0.0686695278969957	9.8295524218271	4001.4652014652	128.0	14.6366037491882	14.9917306492802	0.656488549618321	0.82442748091603	0.229007633587786	-0.750909090909091	0.0445454545454546	-0.207142857142857	101.287151251573	33.624882959732	
1501504442644.29	0.421686746987952	-0.530120481927711	10.1204819277108	0.18638871857756	0.058859595340282	9.91784181483752	4001.4652014652	128.0	14.5477258619935	14.9781958236133	0.870229007633588	0.916030534351145	0.0916030534351145	-0.751818181818182	0.0381818181818182	-0.209183673469388	101.287151251573	33.624882959732	
1501504442663.82	0.265060240963855	-0.493975903614458	9.32530120481928	0.323727774371551	0.166768853464132	9.80012262415696	3995.6043956044	128.0	14.4529580417821	14.9918748925378	0.778625954198473	0.885496183206107	0.152671755725191	-0.752727272727273	0.0418181818181818	-0.211224489795918	101.281197320825	33.624882959732	
1501504442683.35	0.481927710843373	-0.457831325301205	10.0481927710843	0.18638871857756	0.304107909258124	9.7608828939301	4001.4652014652	128.0	13.8949770404868	14.9723058905966	0.183206106870229	0.106870229007634	0.106870229007634	-0.751818181818182	0.0436363636363636	-0.213265306122449	101.284174285808	33.624882959732	
1501504442702.88	-0.0963855421686747	-0.91566265060241	10.5421686746988	-0.529736358062538	0.0392397302268547	10.0257510729614	4000.0	128.0	11.6645435489667	14.9634589708001	2.09160305343511	1.61832061068702	55.9083969465649	-0.751818181818182	0.0436363636363636	-0.213265306122449	101.281197320825	33.624882959732	
1501504442722.41	0.036144578313253	-1.01204819277108	9.6144578313253	0.0490496627835684	-0.343347639484979	10.4770079705702	4000.0	128.0	10.0057460871235	14.9569680242103	0.82442748091603	1.72519083969466	60.6564885496183	-0.755454545454546	0.0490909090909091	-0.21734693877551	101.284174285808	33.624882959732	
1501504442741.94	0.566265060240964	-0.566265060240964	10.289156626506	0.343347639484979	-0.225628448804414	9.86879215205395	3997.0695970696	128.0	11.875763759108	14.9427360227985	0.229007633587786	-6.06106870229008	37.5419847328244	-0.755454545454546	0.0545454545454545	-0.222448979591837	101.290128218118	33.624882959732	
